{"_id":{"$oid":"591b504ae2547c0004193b59"},"data":[{"internal_node_id":"0.0-2.0","time_elapsed":16985,"trial_index":2,"trial_type":"generalization","sample_node":"n04524313","trial_type2":"3_ex","condition":"superordinate_condition","nonsense_word":"pomple","train_images":["n04524313/n04524313_687.JPEG","n04524313/n04524313_1279.JPEG","n02690373/n02690373_3435.JPEG"],"test_images":["n02690373/n02690373_6825.JPEG","n03800933/n03800933_20023.JPEG","n13134947/n13134947_2041.JPEG","n04490091/n04490091_9100.JPEG","n03051540/n03051540_10558.JPEG","n02958343/n02958343_68.JPEG","n03800933/n03800933_26919.JPEG","n04451818/n04451818_27976.JPEG","n04451818/n04451818_1831.JPEG","n04451818/n04451818_861.JPEG","n02958343/n02958343_2203.JPEG","n13134947/n13134947_3139.JPEG","n04451818/n04451818_23048.JPEG","n03335030/n03335030_975.JPEG","n02690373/n02690373_7499.JPEG","n03800933/n03800933_17606.JPEG","n04451818/n04451818_10276.JPEG","n04490091/n04490091_17471.JPEG","n03800933/n03800933_11405.JPEG","n03335030/n03335030_5376.JPEG","n04451818/n04451818_4139.JPEG","n03800933/n03800933_23242.JPEG","n03800933/n03800933_17039.JPEG","n03800933/n03800933_795.JPEG"],"trial_ID":11,"responses":["n03051540/n03051540_10558.JPEG"],"rt":10423},{"internal_node_id":"0.0-3.0","time_elapsed":19854,"trial_index":3,"trial_type":"generalization","sample_node":"n04254777","trial_type2":"3_ex","condition":"basic-level_condition","nonsense_word":"pomple","train_images":["n02752496/n02752496_7908.JPEG","n04254777/n04254777_19915.JPEG","n04254777/n04254777_11566.JPEG"],"test_images":["n03800933/n03800933_9946.JPEG","n04197391/n04197391_7849.JPEG","n03800933/n03800933_3044.JPEG","n02512053/n02512053_2791.JPEG","n04451818/n04451818_18634.JPEG","n03800933/n03800933_22528.JPEG","n03622931/n03622931_14346.JPEG","n03800933/n03800933_14425.JPEG","n04197391/n04197391_17007.JPEG","n03405725/n03405725_34116.JPEG","n03405725/n03405725_1206.JPEG","n03800933/n03800933_21349.JPEG","n04197391/n04197391_1349.JPEG","n02752496/n02752496_1707.JPEG","n02512053/n02512053_7699.JPEG","n03622931/n03622931_7966.JPEG","n03405725/n03405725_18234.JPEG","n04197391/n04197391_796.JPEG","n01503061/n01503061_17777.JPEG","n03800933/n03800933_7277.JPEG","n02512053/n02512053_11159.JPEG","n03405725/n03405725_7887.JPEG","n04524313/n04524313_5213.JPEG","n02752496/n02752496_2649.JPEG"],"trial_ID":11,"responses":["n02512053/n02512053_2791.JPEG"],"rt":1854},{"internal_node_id":"0.0-4.0","time_elapsed":23687,"trial_index":4,"trial_type":"generalization","sample_node":"n01614925","trial_type2":"1_ex","condition":"subordinate_condition","nonsense_word":"pomple","train_images":["n01614925/n01614925_11414.JPEG"],"test_images":["n03405725/n03405725_13311.JPEG","n04451818/n04451818_27419.JPEG","n03800933/n03800933_3914.JPEG","n01621127/n01621127_17536.JPEG","n03405725/n03405725_6187.JPEG","n03405725/n03405725_30176.JPEG","n13104059/n13104059_15190.JPEG","n01621127/n01621127_14257.JPEG","n03800933/n03800933_3720.JPEG","n13104059/n13104059_7460.JPEG","n13104059/n13104059_3996.JPEG","n01539573/n01539573_9871.JPEG","n04451818/n04451818_23599.JPEG","n04451818/n04451818_17038.JPEG","n01614343/n01614343_5663.JPEG","n01614925/n01614925_2052.JPEG","n04524313/n04524313_3761.JPEG","n01614343/n01614343_3958.JPEG","n01539573/n01539573_8882.JPEG","n01614925/n01614925_1488.JPEG","n13104059/n13104059_8104.JPEG","n13104059/n13104059_4884.JPEG","n04451818/n04451818_15071.JPEG","n03800933/n03800933_9492.JPEG"],"trial_ID":11,"responses":["n01621127/n01621127_17536.JPEG"],"rt":2807},{"internal_node_id":"0.0-5.0","time_elapsed":26662,"trial_index":5,"trial_type":"generalization","sample_node":"n04331277","trial_type2":"3_ex","condition":"subordinate_condition","nonsense_word":"pomple","train_images":["n04331277/n04331277_915.JPEG","n04331277/n04331277_3880.JPEG","n04331277/n04331277_3674.JPEG"],"test_images":["n03051540/n03051540_21920.JPEG","n04451818/n04451818_17208.JPEG","n04524313/n04524313_5042.JPEG","n02738535/n02738535_20463.JPEG","n04524313/n04524313_4027.JPEG","n02512053/n02512053_1789.JPEG","n01503061/n01503061_6687.JPEG","n04331277/n04331277_1009.JPEG","n13134947/n13134947_1235.JPEG","n02738535/n02738535_13095.JPEG","n04451818/n04451818_21100.JPEG","n03636248/n03636248_2556.JPEG","n04524313/n04524313_9541.JPEG","n02512053/n02512053_123.JPEG","n03800933/n03800933_26990.JPEG","n13134947/n13134947_4160.JPEG","n04379243/n04379243_14022.JPEG","n04331277/n04331277_5808.JPEG","n01503061/n01503061_1211.JPEG","n03636248/n03636248_3089.JPEG","n04451818/n04451818_1146.JPEG","n01503061/n01503061_13700.JPEG","n04379243/n04379243_11481.JPEG","n04524313/n04524313_5459.JPEG"],"trial_ID":11,"responses":["n01503061/n01503061_13700.JPEG"],"rt":1944},{"internal_node_id":"0.0-6.0","time_elapsed":29414,"trial_index":6,"trial_type":"generalization","sample_node":"n07744682","trial_type2":"5_ex","condition":"subordinate_condition","nonsense_word":"pomple","train_images":["n07744682/n07744682_3258.JPEG","n07744682/n07744682_140.JPEG","n07744682/n07744682_5897.JPEG","n07744682/n07744682_5037.JPEG","n07744682/n07744682_5546.JPEG"],"test_images":["n07744559/n07744559_4931.JPEG","n01503061/n01503061_2741.JPEG","n01503061/n01503061_7092.JPEG","n07739125/n07739125_677.JPEG","n03051540/n03051540_56610.JPEG","n07739125/n07739125_7262.JPEG","n03051540/n03051540_48544.JPEG","n01503061/n01503061_17516.JPEG","n01503061/n01503061_10090.JPEG","n01503061/n01503061_11244.JPEG","n01503061/n01503061_9136.JPEG","n03051540/n03051540_39688.JPEG","n02512053/n02512053_10887.JPEG","n01503061/n01503061_239.JPEG","n03051540/n03051540_6467.JPEG","n07739125/n07739125_1229.JPEG","n01503061/n01503061_5802.JPEG","n07744559/n07744559_6021.JPEG","n02512053/n02512053_10610.JPEG","n07758680/n07758680_21434.JPEG","n02512053/n02512053_5294.JPEG","n03405725/n03405725_33155.JPEG","n07744682/n07744682_5708.JPEG","n07744682/n07744682_6613.JPEG"],"trial_ID":11,"responses":["n07739125/n07739125_677.JPEG"],"rt":1722},{"internal_node_id":"0.0-7.0","time_elapsed":32279,"trial_index":7,"trial_type":"generalization","sample_node":"n03467517","trial_type2":"3_ex","condition":"basic-level_condition","nonsense_word":"pomple","train_images":["n03272010/n03272010_34.JPEG","n03467517/n03467517_15752.JPEG","n03467517/n03467517_11727.JPEG"],"test_images":["n02676566/n02676566_7063.JPEG","n13104059/n13104059_3844.JPEG","n01503061/n01503061_5930.JPEG","n03272010/n03272010_4826.JPEG","n03249569/n03249569_14569.JPEG","n13134947/n13134947_2603.JPEG","n01503061/n01503061_18419.JPEG","n01503061/n01503061_10054.JPEG","n01503061/n01503061_5914.JPEG","n01503061/n01503061_2217.JPEG","n01503061/n01503061_5731.JPEG","n13104059/n13104059_2221.JPEG","n03928116/n03928116_2925.JPEG","n03272010/n03272010_2161.JPEG","n04524313/n04524313_2740.JPEG","n03405725/n03405725_4776.JPEG","n02512053/n02512053_12822.JPEG","n03928116/n03928116_5718.JPEG","n03928116/n03928116_16160.JPEG","n03405725/n03405725_9094.JPEG","n02676566/n02676566_3045.JPEG","n01503061/n01503061_2205.JPEG","n04524313/n04524313_427.JPEG","n02512053/n02512053_785.JPEG"],"trial_ID":11,"responses":["n01503061/n01503061_2205.JPEG"],"rt":1833},{"internal_node_id":"0.0-8.0","time_elapsed":34574,"trial_index":8,"trial_type":"generalization","sample_node":"n02536456","trial_type2":"5_ex","condition":"subordinate_condition","nonsense_word":"pomple","train_images":["n02536456/n02536456_3423.JPEG","n02536456/n02536456_12847.JPEG","n02536456/n02536456_3395.JPEG","n02536456/n02536456_4873.JPEG","n02536456/n02536456_11546.JPEG"],"test_images":["n04524313/n04524313_9842.JPEG","n02537085/n02537085_8703.JPEG","n03405725/n03405725_1551.JPEG","n02537085/n02537085_10388.JPEG","n04524313/n04524313_11842.JPEG","n04524313/n04524313_494.JPEG","n03051540/n03051540_1712.JPEG","n03051540/n03051540_7300.JPEG","n02535537/n02535537_394.JPEG","n03405725/n03405725_19838.JPEG","n02536456/n02536456_5514.JPEG","n13104059/n13104059_8856.JPEG","n03051540/n03051540_50765.JPEG","n03405725/n03405725_13665.JPEG","n04524313/n04524313_1.JPEG","n03405725/n03405725_4677.JPEG","n13104059/n13104059_3399.JPEG","n02535537/n02535537_4722.JPEG","n02536456/n02536456_5855.JPEG","n04524313/n04524313_9261.JPEG","n13104059/n13104059_1270.JPEG","n03405725/n03405725_1528.JPEG","n02586543/n02586543_3508.JPEG","n02537085/n02537085_9505.JPEG"],"trial_ID":11,"responses":["n03405725/n03405725_1528.JPEG"],"rt":1276},{"internal_node_id":"0.0-9.0","time_elapsed":37206,"trial_index":9,"trial_type":"generalization","sample_node":"n02783035","trial_type2":"5_ex","condition":"subordinate_condition","nonsense_word":"pomple","train_images":["n02783035/n02783035_658.JPEG","n02783035/n02783035_848.JPEG","n02783035/n02783035_710.JPEG","n02783035/n02783035_1011.JPEG","n02783035/n02783035_39.JPEG"],"test_images":["n03405725/n03405725_13410.JPEG","n04140064/n04140064_9952.JPEG","n02783035/n02783035_1443.JPEG","n13134947/n13134947_2543.JPEG","n03405725/n03405725_21364.JPEG","n01503061/n01503061_6122.JPEG","n02966545/n02966545_3084.JPEG","n03405725/n03405725_33580.JPEG","n03405725/n03405725_21273.JPEG","n02783035/n02783035_458.JPEG","n03405725/n03405725_21500.JPEG","n04154565/n04154565_12733.JPEG","n03405725/n03405725_30611.JPEG","n04154565/n04154565_5207.JPEG","n03405725/n03405725_11766.JPEG","n03405725/n03405725_27540.JPEG","n02966545/n02966545_444.JPEG","n01503061/n01503061_10728.JPEG","n01503061/n01503061_4492.JPEG","n04524313/n04524313_3165.JPEG","n04154565/n04154565_796.JPEG","n13104059/n13104059_11586.JPEG","n01503061/n01503061_1706.JPEG","n03405725/n03405725_4321.JPEG"],"trial_ID":11,"responses":["n13104059/n13104059_11586.JPEG"],"rt":1593}],"__v":0}
{"_id":{"$oid":"591b5097e2547c0004193b5a"},"data":[{"internal_node_id":"0.0-2.0","time_elapsed":25560,"trial_index":2,"trial_type":"generalization","sample_node":"n03930630","trial_type2":"5_ex","condition":"subordinate_condition","nonsense_word":"canney","train_images":["n03930630/n03930630_5924.JPEG","n03930630/n03930630_1692.JPEG","n03930630/n03930630_7251.JPEG","n03930630/n03930630_10840.JPEG","n03930630/n03930630_134.JPEG"],"test_images":["n03930630/n03930630_19389.JPEG","n04451818/n04451818_10276.JPEG","n13134947/n13134947_3139.JPEG","n03930630/n03930630_3483.JPEG","n03800933/n03800933_23242.JPEG","n04451818/n04451818_4139.JPEG","n03800933/n03800933_20023.JPEG","n03800933/n03800933_11405.JPEG","n04467665/n04467665_49282.JPEG","n02691156/n02691156_5496.JPEG","n02691156/n02691156_1016.JPEG","n04451818/n04451818_861.JPEG","n04451818/n04451818_1831.JPEG","n02691156/n02691156_12193.JPEG","n04451818/n04451818_23048.JPEG","n03800933/n03800933_17606.JPEG","n03800933/n03800933_17039.JPEG","n02691156/n02691156_7725.JPEG","n03800933/n03800933_26919.JPEG","n04451818/n04451818_27976.JPEG","n13134947/n13134947_2041.JPEG","n03800933/n03800933_795.JPEG","n04467665/n04467665_39755.JPEG","n03051540/n03051540_10558.JPEG"],"trial_ID":7,"responses":["n03930630/n03930630_19389.JPEG","n03930630/n03930630_3483.JPEG"],"rt":20836},{"internal_node_id":"0.0-3.0","time_elapsed":43223,"trial_index":3,"trial_type":"generalization","sample_node":"n03622931","trial_type2":"1_ex","condition":"subordinate_condition","nonsense_word":"canney","train_images":["n03622931/n03622931_7781.JPEG"],"test_images":["n02752496/n02752496_5953.JPEG","n03405725/n03405725_34116.JPEG","n02512053/n02512053_7699.JPEG","n04524313/n04524313_5213.JPEG","n03405725/n03405725_7887.JPEG","n02752496/n02752496_4806.JPEG","n03800933/n03800933_21349.JPEG","n04197391/n04197391_1349.JPEG","n03800933/n03800933_3044.JPEG","n03622931/n03622931_14325.JPEG","n03405725/n03405725_18234.JPEG","n03405725/n03405725_1206.JPEG","n04197391/n04197391_796.JPEG","n03800933/n03800933_9946.JPEG","n02512053/n02512053_11159.JPEG","n02512053/n02512053_2791.JPEG","n04451818/n04451818_18634.JPEG","n01503061/n01503061_17777.JPEG","n03800933/n03800933_22528.JPEG","n03800933/n03800933_7277.JPEG","n04197391/n04197391_17007.JPEG","n03622931/n03622931_11835.JPEG","n03800933/n03800933_14425.JPEG","n04197391/n04197391_7849.JPEG"],"trial_ID":7,"responses":["n02752496/n02752496_5953.JPEG","n03622931/n03622931_14325.JPEG","n03622931/n03622931_11835.JPEG"],"rt":16429},{"internal_node_id":"0.0-4.0","time_elapsed":57220,"trial_index":4,"trial_type":"generalization","sample_node":"n01539573","trial_type2":"5_ex","condition":"basic-level_condition","nonsense_word":"canney","train_images":["n01536186/n01536186_3826.JPEG","n01539573/n01539573_14450.JPEG","n01539573/n01539573_8680.JPEG","n01539573/n01539573_14146.JPEG","n01539573/n01539573_10763.JPEG"],"test_images":["n03405725/n03405725_30176.JPEG","n04524313/n04524313_3761.JPEG","n03800933/n03800933_3914.JPEG","n13104059/n13104059_8104.JPEG","n01621127/n01621127_18305.JPEG","n04451818/n04451818_15071.JPEG","n03800933/n03800933_3720.JPEG","n13104059/n13104059_15190.JPEG","n13104059/n13104059_3996.JPEG","n13104059/n13104059_7460.JPEG","n04451818/n04451818_17038.JPEG","n01613294/n01613294_16634.JPEG","n01621127/n01621127_2969.JPEG","n04451818/n04451818_27419.JPEG","n03405725/n03405725_6187.JPEG","n01536186/n01536186_243.JPEG","n03405725/n03405725_13311.JPEG","n04451818/n04451818_23599.JPEG","n01613294/n01613294_473.JPEG","n13104059/n13104059_4884.JPEG","n01536186/n01536186_1948.JPEG","n01536644/n01536644_3324.JPEG","n03800933/n03800933_9492.JPEG","n01536644/n01536644_7762.JPEG"],"trial_ID":7,"responses":["n01536186/n01536186_1948.JPEG","n01536644/n01536644_3324.JPEG"],"rt":12780},{"internal_node_id":"0.0-5.0","time_elapsed":73071,"trial_index":5,"trial_type":"generalization","sample_node":"n03636248","trial_type2":"5_ex","condition":"basic-level_condition","nonsense_word":"canney","train_images":["n03636248/n03636248_12578.JPEG","n03636248/n03636248_1617.JPEG","n03636248/n03636248_9231.JPEG","n03636248/n03636248_11623.JPEG","n04380533/n04380533_3882.JPEG"],"test_images":["n13134947/n13134947_4160.JPEG","n04524313/n04524313_9541.JPEG","n04379243/n04379243_14055.JPEG","n04524313/n04524313_5459.JPEG","n01503061/n01503061_6687.JPEG","n03367059/n03367059_3907.JPEG","n03001627/n03001627_456.JPEG","n13134947/n13134947_1235.JPEG","n03051540/n03051540_21920.JPEG","n04524313/n04524313_4027.JPEG","n01503061/n01503061_13700.JPEG","n03367059/n03367059_1714.JPEG","n03001627/n03001627_14910.JPEG","n04524313/n04524313_5042.JPEG","n04451818/n04451818_17208.JPEG","n02512053/n02512053_1789.JPEG","n04380533/n04380533_4276.JPEG","n04379243/n04379243_5027.JPEG","n02512053/n02512053_123.JPEG","n03800933/n03800933_26990.JPEG","n04451818/n04451818_1146.JPEG","n04451818/n04451818_21100.JPEG","n04380533/n04380533_553.JPEG","n01503061/n01503061_1211.JPEG"],"trial_ID":7,"responses":["n03367059/n03367059_3907.JPEG","n04380533/n04380533_553.JPEG"],"rt":14689},{"internal_node_id":"0.0-6.0","time_elapsed":88495,"trial_index":6,"trial_type":"generalization","sample_node":"n07739125","trial_type2":"5_ex","condition":"basic-level_condition","nonsense_word":"canney","train_images":["n07740954/n07740954_7197.JPEG","n07739125/n07739125_5904.JPEG","n07739125/n07739125_231.JPEG","n07739125/n07739125_9062.JPEG","n07739125/n07739125_9983.JPEG"],"test_images":["n07740954/n07740954_20805.JPEG","n01503061/n01503061_2741.JPEG","n07758680/n07758680_8288.JPEG","n02512053/n02512053_10610.JPEG","n01503061/n01503061_239.JPEG","n07758680/n07758680_6514.JPEG","n03405725/n03405725_33155.JPEG","n01503061/n01503061_7092.JPEG","n07740220/n07740220_9582.JPEG","n02512053/n02512053_10887.JPEG","n07740220/n07740220_11601.JPEG","n01503061/n01503061_10090.JPEG","n03051540/n03051540_6467.JPEG","n01503061/n01503061_9136.JPEG","n07758680/n07758680_532.JPEG","n01503061/n01503061_5802.JPEG","n01503061/n01503061_11244.JPEG","n03051540/n03051540_56610.JPEG","n03051540/n03051540_48544.JPEG","n01503061/n01503061_17516.JPEG","n07744246/n07744246_3044.JPEG","n02512053/n02512053_5294.JPEG","n07740954/n07740954_13323.JPEG","n03051540/n03051540_39688.JPEG"],"trial_ID":7,"responses":["n07740954/n07740954_20805.JPEG","n07758680/n07758680_8288.JPEG","n07740220/n07740220_9582.JPEG"],"rt":14198},{"internal_node_id":"0.0-7.0","time_elapsed":98952,"trial_index":7,"trial_type":"generalization","sample_node":"n03467517","trial_type2":"10_ex","condition":"basic-level_condition","nonsense_word":"canney","train_images":["n03467517/n03467517_10385.JPEG","n03467517/n03467517_10389.JPEG","n03467517/n03467517_2556.JPEG","n03467517/n03467517_221.JPEG","n03467517/n03467517_3637.JPEG","n03467517/n03467517_15752.JPEG","n03272010/n03272010_34.JPEG","n03467517/n03467517_18921.JPEG","n03467517/n03467517_11727.JPEG","n03467517/n03467517_4581.JPEG"],"test_images":["n03928116/n03928116_2925.JPEG","n02676566/n02676566_7063.JPEG","n03249569/n03249569_14569.JPEG","n01503061/n01503061_2217.JPEG","n13104059/n13104059_2221.JPEG","n03272010/n03272010_2161.JPEG","n01503061/n01503061_10054.JPEG","n03405725/n03405725_4776.JPEG","n02512053/n02512053_785.JPEG","n01503061/n01503061_5914.JPEG","n03405725/n03405725_9094.JPEG","n04524313/n04524313_2740.JPEG","n02676566/n02676566_3045.JPEG","n02512053/n02512053_12822.JPEG","n01503061/n01503061_2205.JPEG","n13104059/n13104059_3844.JPEG","n01503061/n01503061_5731.JPEG","n13134947/n13134947_2603.JPEG","n03272010/n03272010_4826.JPEG","n01503061/n01503061_5930.JPEG","n03928116/n03928116_5718.JPEG","n03928116/n03928116_16160.JPEG","n04524313/n04524313_427.JPEG","n01503061/n01503061_18419.JPEG"],"trial_ID":7,"responses":["n03272010/n03272010_2161.JPEG","n02676566/n02676566_3045.JPEG","n03272010/n03272010_4826.JPEG"],"rt":9257},{"internal_node_id":"0.0-8.0","time_elapsed":110705,"trial_index":8,"trial_type":"generalization","sample_node":"n02535537","trial_type2":"1_ex","condition":"subordinate_condition","nonsense_word":"canney","train_images":["n02535537/n02535537_2614.JPEG"],"test_images":["n03405725/n03405725_4677.JPEG","n04524313/n04524313_9261.JPEG","n03405725/n03405725_1528.JPEG","n04524313/n04524313_11842.JPEG","n03405725/n03405725_13665.JPEG","n03051540/n03051540_50765.JPEG","n02535537/n02535537_3342.JPEG","n04524313/n04524313_1.JPEG","n04524313/n04524313_9842.JPEG","n13104059/n13104059_1270.JPEG","n03405725/n03405725_1551.JPEG","n02535537/n02535537_9127.JPEG","n13104059/n13104059_8856.JPEG","n02537085/n02537085_10388.JPEG","n02536456/n02536456_556.JPEG","n02536456/n02536456_6567.JPEG","n04524313/n04524313_494.JPEG","n03051540/n03051540_7300.JPEG","n03405725/n03405725_19838.JPEG","n03051540/n03051540_1712.JPEG","n02537085/n02537085_8703.JPEG","n02537085/n02537085_9505.JPEG","n02586543/n02586543_3508.JPEG","n13104059/n13104059_3399.JPEG"],"trial_ID":7,"responses":["n02535537/n02535537_3342.JPEG","n02536456/n02536456_6567.JPEG","n02537085/n02537085_9505.JPEG","n02586543/n02586543_3508.JPEG"],"rt":10583},{"internal_node_id":"0.0-9.0","time_elapsed":121846,"trial_index":9,"trial_type":"generalization","sample_node":"n03474779","trial_type2":"5_ex","condition":"subordinate_condition","nonsense_word":"canney","train_images":["n03474779/n03474779_16870.JPEG","n03474779/n03474779_8680.JPEG","n03474779/n03474779_6509.JPEG","n03474779/n03474779_7945.JPEG","n03474779/n03474779_20546.JPEG"],"test_images":["n04154565/n04154565_11769.JPEG","n03405725/n03405725_21364.JPEG","n03405725/n03405725_4321.JPEG","n03405725/n03405725_33580.JPEG","n01503061/n01503061_6122.JPEG","n03405725/n03405725_11766.JPEG","n03405725/n03405725_21273.JPEG","n03136504/n03136504_435.JPEG","n03136504/n03136504_5604.JPEG","n01503061/n01503061_4492.JPEG","n03474779/n03474779_17296.JPEG","n13134947/n13134947_2543.JPEG","n13104059/n13104059_11586.JPEG","n04524313/n04524313_3165.JPEG","n03481172/n03481172_17023.JPEG","n03481172/n03481172_10802.JPEG","n01503061/n01503061_1706.JPEG","n03405725/n03405725_27540.JPEG","n03405725/n03405725_21500.JPEG","n03474779/n03474779_18860.JPEG","n03405725/n03405725_13410.JPEG","n04154565/n04154565_6044.JPEG","n01503061/n01503061_10728.JPEG","n03405725/n03405725_30611.JPEG"],"trial_ID":7,"responses":["n03474779/n03474779_17296.JPEG","n03474779/n03474779_18860.JPEG"],"rt":9956}],"__v":0}
{"_id":{"$oid":"591b50b5e2547c0004193b5b"},"data":[{"internal_node_id":"0.0-2.0","time_elapsed":37965,"trial_index":2,"trial_type":"generalization","sample_node":"n02691156","trial_type2":"5_ex","condition":"basic-level_condition","nonsense_word":"pomple","train_images":["n02691156/n02691156_11806.JPEG","n02690373/n02690373_3435.JPEG","n02691156/n02691156_7371.JPEG","n02691156/n02691156_33227.JPEG","n02691156/n02691156_35122.JPEG"],"test_images":["n04451818/n04451818_27976.JPEG","n03800933/n03800933_11405.JPEG","n03800933/n03800933_17606.JPEG","n04451818/n04451818_23048.JPEG","n13134947/n13134947_3139.JPEG","n13134947/n13134947_2041.JPEG","n04490091/n04490091_17471.JPEG","n04490091/n04490091_9100.JPEG","n03800933/n03800933_23242.JPEG","n02958343/n02958343_68.JPEG","n04451818/n04451818_4139.JPEG","n02958343/n02958343_2203.JPEG","n03335030/n03335030_5376.JPEG","n03800933/n03800933_20023.JPEG","n04451818/n04451818_10276.JPEG","n03800933/n03800933_17039.JPEG","n02690373/n02690373_7499.JPEG","n03335030/n03335030_975.JPEG","n03800933/n03800933_795.JPEG","n04451818/n04451818_861.JPEG","n02690373/n02690373_6825.JPEG","n03051540/n03051540_10558.JPEG","n03800933/n03800933_26919.JPEG","n04451818/n04451818_1831.JPEG"],"trial_ID":2,"responses":["n03335030/n03335030_5376.JPEG","n02690373/n02690373_7499.JPEG","n03335030/n03335030_975.JPEG"],"rt":25720},{"internal_node_id":"0.0-3.0","time_elapsed":51601,"trial_index":3,"trial_type":"generalization","sample_node":"n02752496","trial_type2":"5_ex","condition":"subordinate_condition","nonsense_word":"pomple","train_images":["n02752496/n02752496_7908.JPEG","n02752496/n02752496_6781.JPEG","n02752496/n02752496_2160.JPEG","n02752496/n02752496_932.JPEG","n02752496/n02752496_3719.JPEG"],"test_images":["n03405725/n03405725_1206.JPEG","n02752496/n02752496_2649.JPEG","n03800933/n03800933_21349.JPEG","n03622931/n03622931_14346.JPEG","n02752496/n02752496_1707.JPEG","n04197391/n04197391_1349.JPEG","n03405725/n03405725_7887.JPEG","n04451818/n04451818_18634.JPEG","n03800933/n03800933_3044.JPEG","n03405725/n03405725_34116.JPEG","n02512053/n02512053_7699.JPEG","n01503061/n01503061_17777.JPEG","n04524313/n04524313_5213.JPEG","n04197391/n04197391_7849.JPEG","n03622931/n03622931_7966.JPEG","n04197391/n04197391_17007.JPEG","n03800933/n03800933_7277.JPEG","n03800933/n03800933_9946.JPEG","n03800933/n03800933_22528.JPEG","n03800933/n03800933_14425.JPEG","n03405725/n03405725_18234.JPEG","n02512053/n02512053_11159.JPEG","n04197391/n04197391_796.JPEG","n02512053/n02512053_2791.JPEG"],"trial_ID":2,"responses":["n02752496/n02752496_2649.JPEG","n03622931/n03622931_14346.JPEG","n02752496/n02752496_1707.JPEG","n03622931/n03622931_7966.JPEG"],"rt":12626},{"internal_node_id":"0.0-4.0","time_elapsed":66867,"trial_index":4,"trial_type":"generalization","sample_node":"n01536186","trial_type2":"10_ex","condition":"subordinate_condition","nonsense_word":"pomple","train_images":["n01536186/n01536186_1176.JPEG","n01536186/n01536186_816.JPEG","n01536186/n01536186_6046.JPEG","n01536186/n01536186_2785.JPEG","n01536186/n01536186_3829.JPEG","n01536186/n01536186_3826.JPEG","n01536186/n01536186_2424.JPEG","n01536186/n01536186_4310.JPEG","n01536186/n01536186_1653.JPEG","n01536186/n01536186_6522.JPEG"],"test_images":["n01536186/n01536186_243.JPEG","n01536186/n01536186_1948.JPEG","n01613294/n01613294_473.JPEG","n13104059/n13104059_15190.JPEG","n04451818/n04451818_17038.JPEG","n04451818/n04451818_27419.JPEG","n04451818/n04451818_15071.JPEG","n01621127/n01621127_18305.JPEG","n13104059/n13104059_3996.JPEG","n03405725/n03405725_13311.JPEG","n04451818/n04451818_23599.JPEG","n01621127/n01621127_2969.JPEG","n03800933/n03800933_3914.JPEG","n13104059/n13104059_8104.JPEG","n04524313/n04524313_3761.JPEG","n03405725/n03405725_6187.JPEG","n03800933/n03800933_9492.JPEG","n01613294/n01613294_16634.JPEG","n01536644/n01536644_3324.JPEG","n13104059/n13104059_7460.JPEG","n01536644/n01536644_7762.JPEG","n03800933/n03800933_3720.JPEG","n13104059/n13104059_4884.JPEG","n03405725/n03405725_30176.JPEG"],"trial_ID":2,"responses":["n01536186/n01536186_243.JPEG","n01536186/n01536186_1948.JPEG","n01613294/n01613294_473.JPEG","n01621127/n01621127_18305.JPEG","n01621127/n01621127_2969.JPEG","n01613294/n01613294_16634.JPEG","n01536644/n01536644_3324.JPEG","n01536644/n01536644_7762.JPEG"],"rt":14257},{"internal_node_id":"0.0-5.0","time_elapsed":84901,"trial_index":5,"trial_type":"generalization","sample_node":"n04331277","trial_type2":"10_ex","condition":"subordinate_condition","nonsense_word":"pomple","train_images":["n04331277/n04331277_3001.JPEG","n04331277/n04331277_3880.JPEG","n04331277/n04331277_7996.JPEG","n04331277/n04331277_4301.JPEG","n04331277/n04331277_5388.JPEG","n04331277/n04331277_3674.JPEG","n04331277/n04331277_6940.JPEG","n04331277/n04331277_915.JPEG","n04331277/n04331277_3667.JPEG","n04331277/n04331277_1711.JPEG"],"test_images":["n04331277/n04331277_1009.JPEG","n02512053/n02512053_123.JPEG","n01503061/n01503061_13700.JPEG","n02738535/n02738535_13095.JPEG","n03800933/n03800933_26990.JPEG","n04451818/n04451818_17208.JPEG","n04524313/n04524313_5042.JPEG","n13134947/n13134947_1235.JPEG","n02738535/n02738535_20463.JPEG","n13134947/n13134947_4160.JPEG","n04451818/n04451818_21100.JPEG","n01503061/n01503061_6687.JPEG","n01503061/n01503061_1211.JPEG","n04331277/n04331277_5808.JPEG","n04379243/n04379243_11481.JPEG","n03051540/n03051540_21920.JPEG","n04379243/n04379243_14022.JPEG","n04524313/n04524313_9541.JPEG","n03636248/n03636248_2556.JPEG","n03636248/n03636248_3089.JPEG","n02512053/n02512053_1789.JPEG","n04524313/n04524313_4027.JPEG","n04524313/n04524313_5459.JPEG","n04451818/n04451818_1146.JPEG"],"trial_ID":2,"responses":["n04331277/n04331277_1009.JPEG","n02738535/n02738535_13095.JPEG","n02738535/n02738535_20463.JPEG","n04331277/n04331277_5808.JPEG","n04379243/n04379243_14022.JPEG"],"rt":17026},{"internal_node_id":"0.0-6.0","time_elapsed":105149,"trial_index":6,"trial_type":"generalization","sample_node":"n07740220","trial_type2":"3_ex","condition":"subordinate_condition","nonsense_word":"pomple","train_images":["n07740220/n07740220_17727.JPEG","n07740220/n07740220_122.JPEG","n07740220/n07740220_10642.JPEG"],"test_images":["n07740954/n07740954_2848.JPEG","n02512053/n02512053_10610.JPEG","n03051540/n03051540_39688.JPEG","n01503061/n01503061_7092.JPEG","n07758680/n07758680_532.JPEG","n03051540/n03051540_48544.JPEG","n01503061/n01503061_9136.JPEG","n01503061/n01503061_10090.JPEG","n07744246/n07744246_3044.JPEG","n07740954/n07740954_22387.JPEG","n02512053/n02512053_5294.JPEG","n07740220/n07740220_2210.JPEG","n03405725/n03405725_33155.JPEG","n01503061/n01503061_239.JPEG","n01503061/n01503061_5802.JPEG","n07740220/n07740220_2390.JPEG","n03051540/n03051540_56610.JPEG","n01503061/n01503061_2741.JPEG","n03051540/n03051540_6467.JPEG","n07758680/n07758680_6514.JPEG","n01503061/n01503061_17516.JPEG","n02512053/n02512053_10887.JPEG","n01503061/n01503061_11244.JPEG","n07758680/n07758680_8288.JPEG"],"trial_ID":2,"responses":["n07740954/n07740954_2848.JPEG","n07740954/n07740954_22387.JPEG","n07740220/n07740220_2210.JPEG","n07740220/n07740220_2390.JPEG"],"rt":19238},{"internal_node_id":"0.0-7.0","time_elapsed":123696,"trial_index":7,"trial_type":"generalization","sample_node":"n02803666","trial_type2":"1_ex","condition":"subordinate_condition","nonsense_word":"pomple","train_images":["n02803666/n02803666_935.JPEG"],"test_images":["n01503061/n01503061_2205.JPEG","n01503061/n01503061_5731.JPEG","n03467517/n03467517_20530.JPEG","n02512053/n02512053_12822.JPEG","n03928116/n03928116_6875.JPEG","n01503061/n01503061_5914.JPEG","n02803666/n02803666_12635.JPEG","n01503061/n01503061_10054.JPEG","n03467517/n03467517_2282.JPEG","n04387400/n04387400_687.JPEG","n04524313/n04524313_2740.JPEG","n03405725/n03405725_9094.JPEG","n02803666/n02803666_995.JPEG","n01503061/n01503061_5930.JPEG","n13104059/n13104059_3844.JPEG","n01503061/n01503061_2217.JPEG","n03405725/n03405725_4776.JPEG","n13104059/n13104059_2221.JPEG","n13134947/n13134947_2603.JPEG","n03928116/n03928116_11434.JPEG","n02512053/n02512053_785.JPEG","n01503061/n01503061_18419.JPEG","n04524313/n04524313_427.JPEG","n04387400/n04387400_7007.JPEG"],"trial_ID":2,"responses":["n02803666/n02803666_12635.JPEG","n02803666/n02803666_995.JPEG"],"rt":17538},{"internal_node_id":"0.0-8.0","time_elapsed":143688,"trial_index":8,"trial_type":"generalization","sample_node":"n02537525","trial_type2":"3_ex","condition":"subordinate_condition","nonsense_word":"pomple","train_images":["n02537525/n02537525_1182.JPEG","n02537525/n02537525_2951.JPEG","n02537525/n02537525_290.JPEG"],"test_images":["n02534734/n02534734_6427.JPEG","n02538010/n02538010_9982.JPEG","n03405725/n03405725_1551.JPEG","n02537525/n02537525_1606.JPEG","n13104059/n13104059_3399.JPEG","n03405725/n03405725_4677.JPEG","n03051540/n03051540_50765.JPEG","n13104059/n13104059_8856.JPEG","n04524313/n04524313_1.JPEG","n02534734/n02534734_13206.JPEG","n03405725/n03405725_13665.JPEG","n04524313/n04524313_494.JPEG","n02538010/n02538010_10271.JPEG","n02534734/n02534734_6131.JPEG","n03051540/n03051540_7300.JPEG","n04524313/n04524313_9261.JPEG","n03051540/n03051540_1712.JPEG","n03405725/n03405725_1528.JPEG","n02586543/n02586543_1071.JPEG","n02537525/n02537525_2315.JPEG","n04524313/n04524313_9842.JPEG","n13104059/n13104059_1270.JPEG","n03405725/n03405725_19838.JPEG","n04524313/n04524313_11842.JPEG"],"trial_ID":2,"responses":["n02534734/n02534734_6427.JPEG","n02538010/n02538010_9982.JPEG","n02537525/n02537525_1606.JPEG","n02534734/n02534734_13206.JPEG","n02538010/n02538010_10271.JPEG","n02534734/n02534734_6131.JPEG","n02586543/n02586543_1071.JPEG","n02537525/n02537525_2315.JPEG"],"rt":18982},{"internal_node_id":"0.0-9.0","time_elapsed":163940,"trial_index":9,"trial_type":"generalization","sample_node":"n04154565","trial_type2":"3_ex","condition":"basic-level_condition","nonsense_word":"pomple","train_images":["n04154565/n04154565_9684.JPEG","n03361683/n03361683_1442.JPEG","n04154565/n04154565_4819.JPEG"],"test_images":["n03405725/n03405725_30611.JPEG","n03405725/n03405725_21273.JPEG","n04524313/n04524313_3165.JPEG","n01503061/n01503061_10728.JPEG","n04140064/n04140064_10286.JPEG","n04140064/n04140064_15716.JPEG","n03405725/n03405725_21364.JPEG","n03361683/n03361683_1636.JPEG","n03923692/n03923692_1823.JPEG","n13134947/n13134947_2543.JPEG","n03405725/n03405725_21500.JPEG","n03405725/n03405725_33580.JPEG","n03405725/n03405725_4321.JPEG","n01503061/n01503061_1706.JPEG","n03405725/n03405725_11766.JPEG","n01503061/n01503061_4492.JPEG","n03405725/n03405725_27540.JPEG","n03361683/n03361683_1618.JPEG","n13104059/n13104059_11586.JPEG","n03405725/n03405725_13410.JPEG","n04140064/n04140064_12006.JPEG","n01503061/n01503061_6122.JPEG","n03923692/n03923692_1191.JPEG","n04140064/n04140064_24666.JPEG"],"trial_ID":2,"responses":["n03361683/n03361683_1636.JPEG","n03923692/n03923692_1823.JPEG","n03361683/n03361683_1618.JPEG","n03923692/n03923692_1191.JPEG"],"rt":19244}],"__v":0}
{"_id":{"$oid":"591b50bbe2547c0004193b5c"},"data":[{"internal_node_id":"0.0-2.0","time_elapsed":45860,"trial_index":2,"trial_type":"generalization","sample_node":"n03930630","trial_type2":"3_ex","condition":"subordinate_condition","nonsense_word":"coloost","train_images":["n03930630/n03930630_7251.JPEG","n03930630/n03930630_10840.JPEG","n03930630/n03930630_134.JPEG"],"test_images":["n04451818/n04451818_4139.JPEG","n03800933/n03800933_17039.JPEG","n04451818/n04451818_27976.JPEG","n04451818/n04451818_23048.JPEG","n04467665/n04467665_39755.JPEG","n02691156/n02691156_12193.JPEG","n02691156/n02691156_5496.JPEG","n04467665/n04467665_49282.JPEG","n03930630/n03930630_19389.JPEG","n04451818/n04451818_1831.JPEG","n04451818/n04451818_10276.JPEG","n13134947/n13134947_2041.JPEG","n02691156/n02691156_1016.JPEG","n03800933/n03800933_11405.JPEG","n02691156/n02691156_7725.JPEG","n03051540/n03051540_10558.JPEG","n13134947/n13134947_3139.JPEG","n03800933/n03800933_23242.JPEG","n04451818/n04451818_861.JPEG","n03930630/n03930630_3483.JPEG","n03800933/n03800933_795.JPEG","n03800933/n03800933_17606.JPEG","n03800933/n03800933_26919.JPEG","n03800933/n03800933_20023.JPEG"],"trial_ID":14,"responses":["n03930630/n03930630_3483.JPEG"],"rt":27374},{"internal_node_id":"0.0-3.0","time_elapsed":57637,"trial_index":3,"trial_type":"generalization","sample_node":"n02752496","trial_type2":"1_ex","condition":"subordinate_condition","nonsense_word":"coloost","train_images":["n02752496/n02752496_7908.JPEG"],"test_images":["n02512053/n02512053_11159.JPEG","n03405725/n03405725_18234.JPEG","n03800933/n03800933_7277.JPEG","n02752496/n02752496_1707.JPEG","n03800933/n03800933_14425.JPEG","n02512053/n02512053_7699.JPEG","n04451818/n04451818_18634.JPEG","n04197391/n04197391_7849.JPEG","n04197391/n04197391_796.JPEG","n03800933/n03800933_9946.JPEG","n03405725/n03405725_1206.JPEG","n03800933/n03800933_21349.JPEG","n03622931/n03622931_14346.JPEG","n03405725/n03405725_34116.JPEG","n02512053/n02512053_2791.JPEG","n04197391/n04197391_17007.JPEG","n04197391/n04197391_1349.JPEG","n02752496/n02752496_2649.JPEG","n03622931/n03622931_7966.JPEG","n01503061/n01503061_17777.JPEG","n03800933/n03800933_3044.JPEG","n04524313/n04524313_5213.JPEG","n03405725/n03405725_7887.JPEG","n03800933/n03800933_22528.JPEG"],"trial_ID":14,"responses":["n02752496/n02752496_1707.JPEG","n03622931/n03622931_14346.JPEG","n02752496/n02752496_2649.JPEG"],"rt":10759},{"internal_node_id":"0.0-4.0","time_elapsed":72780,"trial_index":4,"trial_type":"generalization","sample_node":"n01536186","trial_type2":"1_ex","condition":"subordinate_condition","nonsense_word":"coloost","train_images":["n01536186/n01536186_3826.JPEG"],"test_images":["n03405725/n03405725_30176.JPEG","n01536644/n01536644_7762.JPEG","n03405725/n03405725_13311.JPEG","n01536644/n01536644_3324.JPEG","n13104059/n13104059_7460.JPEG","n13104059/n13104059_15190.JPEG","n04451818/n04451818_27419.JPEG","n04451818/n04451818_23599.JPEG","n01613294/n01613294_473.JPEG","n03800933/n03800933_9492.JPEG","n13104059/n13104059_3996.JPEG","n04524313/n04524313_3761.JPEG","n13104059/n13104059_4884.JPEG","n01536186/n01536186_1948.JPEG","n01613294/n01613294_16634.JPEG","n13104059/n13104059_8104.JPEG","n04451818/n04451818_17038.JPEG","n04451818/n04451818_15071.JPEG","n03800933/n03800933_3914.JPEG","n01621127/n01621127_18305.JPEG","n03800933/n03800933_3720.JPEG","n01536186/n01536186_243.JPEG","n03405725/n03405725_6187.JPEG","n01621127/n01621127_2969.JPEG"],"trial_ID":14,"responses":["n01536644/n01536644_7762.JPEG","n01536644/n01536644_3324.JPEG","n01536186/n01536186_1948.JPEG","n01613294/n01613294_16634.JPEG","n01621127/n01621127_18305.JPEG","n01536186/n01536186_243.JPEG","n01621127/n01621127_2969.JPEG"],"rt":14122},{"internal_node_id":"0.0-5.0","time_elapsed":86375,"trial_index":5,"trial_type":"generalization","sample_node":"n04380533","trial_type2":"3_ex","condition":"subordinate_condition","nonsense_word":"coloost","train_images":["n04380533/n04380533_3882.JPEG","n04380533/n04380533_4041.JPEG","n04380533/n04380533_2198.JPEG"],"test_images":["n03800933/n03800933_26990.JPEG","n04524313/n04524313_4027.JPEG","n04380533/n04380533_4276.JPEG","n04451818/n04451818_21100.JPEG","n03367059/n03367059_3907.JPEG","n04451818/n04451818_17208.JPEG","n04524313/n04524313_5459.JPEG","n13134947/n13134947_1235.JPEG","n04524313/n04524313_9541.JPEG","n02512053/n02512053_123.JPEG","n04379243/n04379243_5027.JPEG","n03367059/n03367059_1714.JPEG","n03051540/n03051540_21920.JPEG","n01503061/n01503061_6687.JPEG","n01503061/n01503061_13700.JPEG","n13134947/n13134947_4160.JPEG","n03001627/n03001627_456.JPEG","n04524313/n04524313_5042.JPEG","n01503061/n01503061_1211.JPEG","n04451818/n04451818_1146.JPEG","n03001627/n03001627_14910.JPEG","n04379243/n04379243_14055.JPEG","n04380533/n04380533_553.JPEG","n02512053/n02512053_1789.JPEG"],"trial_ID":14,"responses":["n03367059/n03367059_3907.JPEG","n04380533/n04380533_553.JPEG"],"rt":12573},{"internal_node_id":"0.0-6.0","time_elapsed":102085,"trial_index":6,"trial_type":"generalization","sample_node":"n07744559","trial_type2":"3_ex","condition":"subordinate_condition","nonsense_word":"coloost","train_images":["n07744559/n07744559_2561.JPEG","n07744559/n07744559_6026.JPEG","n07744559/n07744559_5893.JPEG"],"test_images":["n03051540/n03051540_56610.JPEG","n07744559/n07744559_887.JPEG","n07758680/n07758680_21434.JPEG","n07739125/n07739125_1229.JPEG","n01503061/n01503061_10090.JPEG","n01503061/n01503061_2741.JPEG","n02512053/n02512053_10887.JPEG","n07744682/n07744682_3135.JPEG","n03405725/n03405725_33155.JPEG","n07744559/n07744559_5309.JPEG","n01503061/n01503061_239.JPEG","n03051540/n03051540_39688.JPEG","n07744682/n07744682_5327.JPEG","n01503061/n01503061_5802.JPEG","n03051540/n03051540_6467.JPEG","n01503061/n01503061_7092.JPEG","n07739125/n07739125_677.JPEG","n07739125/n07739125_7262.JPEG","n01503061/n01503061_11244.JPEG","n03051540/n03051540_48544.JPEG","n01503061/n01503061_17516.JPEG","n01503061/n01503061_9136.JPEG","n02512053/n02512053_10610.JPEG","n02512053/n02512053_5294.JPEG"],"trial_ID":14,"responses":["n07744559/n07744559_887.JPEG","n07758680/n07758680_21434.JPEG","n07744682/n07744682_3135.JPEG","n07744559/n07744559_5309.JPEG","n07744682/n07744682_5327.JPEG"],"rt":14671},{"internal_node_id":"0.0-7.0","time_elapsed":112138,"trial_index":7,"trial_type":"generalization","sample_node":"n03272010","trial_type2":"1_ex","condition":"subordinate_condition","nonsense_word":"coloost","train_images":["n03272010/n03272010_34.JPEG"],"test_images":["n03928116/n03928116_16160.JPEG","n02512053/n02512053_785.JPEG","n03928116/n03928116_2925.JPEG","n03405725/n03405725_4776.JPEG","n01503061/n01503061_2205.JPEG","n04524313/n04524313_427.JPEG","n02512053/n02512053_12822.JPEG","n04524313/n04524313_2740.JPEG","n03405725/n03405725_9094.JPEG","n02676566/n02676566_7063.JPEG","n03272010/n03272010_4826.JPEG","n01503061/n01503061_2217.JPEG","n01503061/n01503061_10054.JPEG","n13104059/n13104059_3844.JPEG","n01503061/n01503061_5930.JPEG","n03928116/n03928116_5718.JPEG","n13134947/n13134947_2603.JPEG","n03272010/n03272010_2161.JPEG","n03249569/n03249569_14569.JPEG","n01503061/n01503061_5731.JPEG","n01503061/n01503061_5914.JPEG","n13104059/n13104059_2221.JPEG","n01503061/n01503061_18419.JPEG","n02676566/n02676566_3045.JPEG"],"trial_ID":14,"responses":["n03272010/n03272010_4826.JPEG","n03272010/n03272010_2161.JPEG","n02676566/n02676566_3045.JPEG"],"rt":9026},{"internal_node_id":"0.0-8.0","time_elapsed":125805,"trial_index":8,"trial_type":"generalization","sample_node":"n02587051","trial_type2":"1_ex","condition":"subordinate_condition","nonsense_word":"coloost","train_images":["n02587051/n02587051_1062.JPEG"],"test_images":["n04524313/n04524313_494.JPEG","n04524313/n04524313_11842.JPEG","n02587051/n02587051_437.JPEG","n13104059/n13104059_3399.JPEG","n04524313/n04524313_1.JPEG","n03405725/n03405725_1528.JPEG","n03405725/n03405725_1551.JPEG","n03051540/n03051540_1712.JPEG","n03051540/n03051540_50765.JPEG","n13104059/n13104059_1270.JPEG","n02587300/n02587300_5511.JPEG","n02534734/n02534734_12576.JPEG","n03405725/n03405725_13665.JPEG","n03405725/n03405725_19838.JPEG","n03405725/n03405725_4677.JPEG","n04524313/n04524313_9261.JPEG","n13104059/n13104059_8856.JPEG","n02534734/n02534734_9206.JPEG","n02534734/n02534734_5970.JPEG","n02587300/n02587300_1622.JPEG","n02534734/n02534734_12592.JPEG","n02587051/n02587051_964.JPEG","n04524313/n04524313_9842.JPEG","n03051540/n03051540_7300.JPEG"],"trial_ID":14,"responses":["n02534734/n02534734_12576.JPEG","n02534734/n02534734_5970.JPEG"],"rt":12638},{"internal_node_id":"0.0-9.0","time_elapsed":137530,"trial_index":9,"trial_type":"generalization","sample_node":"n03481172","trial_type2":"5_ex","condition":"basic-level_condition","nonsense_word":"coloost","train_images":["n03481172/n03481172_6415.JPEG","n03481172/n03481172_14349.JPEG","n02783035/n02783035_658.JPEG","n03481172/n03481172_3365.JPEG","n03481172/n03481172_27719.JPEG"],"test_images":["n01503061/n01503061_4492.JPEG","n03405725/n03405725_21364.JPEG","n04154565/n04154565_796.JPEG","n01503061/n01503061_6122.JPEG","n03405725/n03405725_13410.JPEG","n01503061/n01503061_1706.JPEG","n02966545/n02966545_3084.JPEG","n01503061/n01503061_10728.JPEG","n04524313/n04524313_3165.JPEG","n03405725/n03405725_27540.JPEG","n03405725/n03405725_30611.JPEG","n03405725/n03405725_21273.JPEG","n03405725/n03405725_21500.JPEG","n04140064/n04140064_9952.JPEG","n13104059/n13104059_11586.JPEG","n02783035/n02783035_458.JPEG","n02783035/n02783035_1443.JPEG","n04154565/n04154565_12733.JPEG","n02966545/n02966545_444.JPEG","n04154565/n04154565_5207.JPEG","n03405725/n03405725_33580.JPEG","n03405725/n03405725_4321.JPEG","n03405725/n03405725_11766.JPEG","n13134947/n13134947_2543.JPEG"],"trial_ID":14,"responses":["n02966545/n02966545_3084.JPEG","n02783035/n02783035_458.JPEG","n02966545/n02966545_444.JPEG"],"rt":10698}],"__v":0}
{"_id":{"$oid":"591b50cae2547c0004193b5d"},"data":[{"internal_node_id":"0.0-2.0","time_elapsed":39910,"trial_index":2,"trial_type":"generalization","sample_node":"n04166281","trial_type2":"5_ex","condition":"subordinate_condition","nonsense_word":"canney","train_images":["n04166281/n04166281_5208.JPEG","n04166281/n04166281_21102.JPEG","n04166281/n04166281_3749.JPEG","n04166281/n04166281_6934.JPEG","n04166281/n04166281_6009.JPEG"],"test_images":["n03800933/n03800933_17606.JPEG","n03800933/n03800933_795.JPEG","n03800933/n03800933_23242.JPEG","n04490091/n04490091_24146.JPEG","n04285008/n04285008_1867.JPEG","n04451818/n04451818_861.JPEG","n04166281/n04166281_20598.JPEG","n03800933/n03800933_17039.JPEG","n04490091/n04490091_18081.JPEG","n04451818/n04451818_4139.JPEG","n13134947/n13134947_3139.JPEG","n04166281/n04166281_14245.JPEG","n03800933/n03800933_11405.JPEG","n04451818/n04451818_23048.JPEG","n04451818/n04451818_10276.JPEG","n03800933/n03800933_20023.JPEG","n13134947/n13134947_2041.JPEG","n04451818/n04451818_1831.JPEG","n04451818/n04451818_27976.JPEG","n04490091/n04490091_31073.JPEG","n04285008/n04285008_7819.JPEG","n04490091/n04490091_17237.JPEG","n03051540/n03051540_10558.JPEG","n03800933/n03800933_26919.JPEG"],"trial_ID":4,"responses":["n04285008/n04285008_1867.JPEG","n04166281/n04166281_20598.JPEG","n04166281/n04166281_14245.JPEG","n04285008/n04285008_7819.JPEG"],"rt":34249},{"internal_node_id":"0.0-3.0","time_elapsed":71426,"trial_index":3,"trial_type":"generalization","sample_node":"n04197391","trial_type2":"10_ex","condition":"basic-level_condition","nonsense_word":"canney","train_images":["n04197391/n04197391_5449.JPEG","n04197391/n04197391_2099.JPEG","n04197391/n04197391_8016.JPEG","n04197391/n04197391_7525.JPEG","n03978966/n03978966_2929.JPEG","n04197391/n04197391_3307.JPEG","n04197391/n04197391_3209.JPEG","n04197391/n04197391_8665.JPEG","n04197391/n04197391_233.JPEG","n04197391/n04197391_1978.JPEG"],"test_images":["n03238879/n03238879_6547.JPEG","n04254777/n04254777_15589.JPEG","n02512053/n02512053_11159.JPEG","n03405725/n03405725_34116.JPEG","n03800933/n03800933_14425.JPEG","n03238879/n03238879_21212.JPEG","n03405725/n03405725_18234.JPEG","n04254777/n04254777_8510.JPEG","n03800933/n03800933_22528.JPEG","n03405725/n03405725_1206.JPEG","n01503061/n01503061_17777.JPEG","n03405725/n03405725_7887.JPEG","n04524313/n04524313_5213.JPEG","n03800933/n03800933_9946.JPEG","n04254777/n04254777_4377.JPEG","n03978966/n03978966_19167.JPEG","n03800933/n03800933_21349.JPEG","n02512053/n02512053_2791.JPEG","n03978966/n03978966_169.JPEG","n02512053/n02512053_7699.JPEG","n04489008/n04489008_5252.JPEG","n04451818/n04451818_18634.JPEG","n03800933/n03800933_3044.JPEG","n03800933/n03800933_7277.JPEG"],"trial_ID":4,"responses":["n03238879/n03238879_6547.JPEG","n03238879/n03238879_21212.JPEG","n03978966/n03978966_19167.JPEG","n03978966/n03978966_169.JPEG"],"rt":30507},{"internal_node_id":"0.0-4.0","time_elapsed":87914,"trial_index":4,"trial_type":"generalization","sample_node":"n01536644","trial_type2":"10_ex","condition":"subordinate_condition","nonsense_word":"canney","train_images":["n01536644/n01536644_2406.JPEG","n01536644/n01536644_6555.JPEG","n01536644/n01536644_6898.JPEG","n01536644/n01536644_2350.JPEG","n01536644/n01536644_4755.JPEG","n01536644/n01536644_7338.JPEG","n01536644/n01536644_2377.JPEG","n01536644/n01536644_41.JPEG","n01536644/n01536644_1650.JPEG","n01536644/n01536644_9318.JPEG"],"test_images":["n13104059/n13104059_4884.JPEG","n03800933/n03800933_3914.JPEG","n01621127/n01621127_18305.JPEG","n03405725/n03405725_6187.JPEG","n03405725/n03405725_13311.JPEG","n01613294/n01613294_473.JPEG","n01621127/n01621127_2969.JPEG","n04451818/n04451818_17038.JPEG","n03800933/n03800933_9492.JPEG","n03405725/n03405725_30176.JPEG","n04451818/n04451818_27419.JPEG","n13104059/n13104059_8104.JPEG","n04451818/n04451818_15071.JPEG","n01613294/n01613294_16634.JPEG","n13104059/n13104059_3996.JPEG","n04524313/n04524313_3761.JPEG","n04451818/n04451818_23599.JPEG","n01536186/n01536186_1648.JPEG","n13104059/n13104059_15190.JPEG","n01536644/n01536644_2649.JPEG","n01536644/n01536644_4518.JPEG","n13104059/n13104059_7460.JPEG","n01536186/n01536186_4181.JPEG","n03800933/n03800933_3720.JPEG"],"trial_ID":4,"responses":["n01621127/n01621127_18305.JPEG","n01613294/n01613294_473.JPEG","n01621127/n01621127_2969.JPEG","n01613294/n01613294_16634.JPEG","n01536644/n01536644_2649.JPEG","n01536644/n01536644_4518.JPEG","n01536186/n01536186_4181.JPEG"],"rt":15480},{"internal_node_id":"0.0-5.0","time_elapsed":108937,"trial_index":5,"trial_type":"generalization","sample_node":"n03405725","trial_type2":"5_ex","condition":"superordinate_condition","nonsense_word":"canney","train_images":["n03405725/n03405725_2842.JPEG","n03405725/n03405725_3540.JPEG","n04380533/n04380533_3882.JPEG","n03405725/n03405725_9592.JPEG","n03405725/n03405725_14610.JPEG"],"test_images":["n04380533/n04380533_553.JPEG","n03367059/n03367059_1714.JPEG","n03001627/n03001627_456.JPEG","n04379243/n04379243_5027.JPEG","n04380533/n04380533_4276.JPEG","n03001627/n03001627_14910.JPEG","n01503061/n01503061_6687.JPEG","n13134947/n13134947_4160.JPEG","n04451818/n04451818_17208.JPEG","n04524313/n04524313_9541.JPEG","n04524313/n04524313_5459.JPEG","n04451818/n04451818_21100.JPEG","n02512053/n02512053_123.JPEG","n03800933/n03800933_26990.JPEG","n13134947/n13134947_1235.JPEG","n03051540/n03051540_21920.JPEG","n01503061/n01503061_1211.JPEG","n01503061/n01503061_13700.JPEG","n04451818/n04451818_1146.JPEG","n02512053/n02512053_1789.JPEG","n04524313/n04524313_5042.JPEG","n04524313/n04524313_4027.JPEG","n04379243/n04379243_14055.JPEG","n03367059/n03367059_3907.JPEG"],"trial_ID":4,"responses":["n04380533/n04380533_553.JPEG","n03001627/n03001627_456.JPEG","n04379243/n04379243_5027.JPEG","n03001627/n03001627_14910.JPEG","n03051540/n03051540_21920.JPEG","n04379243/n04379243_14055.JPEG","n03367059/n03367059_3907.JPEG"],"rt":20014},{"internal_node_id":"0.0-6.0","time_elapsed":124483,"trial_index":6,"trial_type":"generalization","sample_node":"n07740220","trial_type2":"5_ex","condition":"subordinate_condition","nonsense_word":"canney","train_images":["n07740220/n07740220_10642.JPEG","n07740220/n07740220_17727.JPEG","n07740220/n07740220_11849.JPEG","n07740220/n07740220_122.JPEG","n07740220/n07740220_3475.JPEG"],"test_images":["n02512053/n02512053_5294.JPEG","n01503061/n01503061_11244.JPEG","n03051540/n03051540_48544.JPEG","n07740954/n07740954_2848.JPEG","n07740220/n07740220_2210.JPEG","n01503061/n01503061_7092.JPEG","n03051540/n03051540_6467.JPEG","n01503061/n01503061_9136.JPEG","n07758680/n07758680_8288.JPEG","n07740220/n07740220_2390.JPEG","n01503061/n01503061_10090.JPEG","n07740954/n07740954_22387.JPEG","n02512053/n02512053_10610.JPEG","n01503061/n01503061_2741.JPEG","n01503061/n01503061_239.JPEG","n03051540/n03051540_56610.JPEG","n07758680/n07758680_532.JPEG","n03405725/n03405725_33155.JPEG","n07758680/n07758680_6514.JPEG","n03051540/n03051540_39688.JPEG","n07744246/n07744246_3044.JPEG","n01503061/n01503061_5802.JPEG","n02512053/n02512053_10887.JPEG","n01503061/n01503061_17516.JPEG"],"trial_ID":4,"responses":["n07740220/n07740220_2210.JPEG","n07740220/n07740220_2390.JPEG","n07740954/n07740954_22387.JPEG"],"rt":14537},{"internal_node_id":"0.0-7.0","time_elapsed":138994,"trial_index":7,"trial_type":"generalization","sample_node":"n04515003","trial_type2":"1_ex","condition":"subordinate_condition","nonsense_word":"canney","train_images":["n04515003/n04515003_6486.JPEG"],"test_images":["n03249569/n03249569_79068.JPEG","n04524313/n04524313_427.JPEG","n04515003/n04515003_6921.JPEG","n13134947/n13134947_2603.JPEG","n04524313/n04524313_2740.JPEG","n01503061/n01503061_10054.JPEG","n01503061/n01503061_2217.JPEG","n01503061/n01503061_18419.JPEG","n03452741/n03452741_5978.JPEG","n03452741/n03452741_7082.JPEG","n03405725/n03405725_9094.JPEG","n13104059/n13104059_3844.JPEG","n03467517/n03467517_11896.JPEG","n03467517/n03467517_206.JPEG","n01503061/n01503061_5930.JPEG","n13104059/n13104059_2221.JPEG","n02512053/n02512053_12822.JPEG","n03405725/n03405725_4776.JPEG","n01503061/n01503061_5731.JPEG","n03467517/n03467517_12444.JPEG","n01503061/n01503061_5914.JPEG","n01503061/n01503061_2205.JPEG","n04515003/n04515003_10918.JPEG","n02512053/n02512053_785.JPEG"],"trial_ID":4,"responses":["n04515003/n04515003_6921.JPEG","n03452741/n03452741_7082.JPEG","n04515003/n04515003_10918.JPEG"],"rt":13503},{"internal_node_id":"0.0-8.0","time_elapsed":156217,"trial_index":8,"trial_type":"generalization","sample_node":"n02586543","trial_type2":"10_ex","condition":"basic-level_condition","nonsense_word":"canney","train_images":["n02587300/n02587300_4212.JPEG","n02586543/n02586543_2078.JPEG","n02586543/n02586543_4321.JPEG","n02586543/n02586543_9019.JPEG","n02586543/n02586543_481.JPEG","n02586543/n02586543_9657.JPEG","n02586543/n02586543_8537.JPEG","n02586543/n02586543_4300.JPEG","n02586543/n02586543_2453.JPEG","n02586543/n02586543_6652.JPEG"],"test_images":["n03051540/n03051540_50765.JPEG","n02587300/n02587300_8135.JPEG","n02534734/n02534734_9206.JPEG","n13104059/n13104059_8856.JPEG","n03051540/n03051540_1712.JPEG","n03405725/n03405725_19838.JPEG","n03051540/n03051540_7300.JPEG","n03405725/n03405725_1528.JPEG","n02534734/n02534734_5970.JPEG","n02587300/n02587300_4179.JPEG","n02534734/n02534734_12576.JPEG","n02587051/n02587051_837.JPEG","n04524313/n04524313_11842.JPEG","n03405725/n03405725_13665.JPEG","n02587051/n02587051_1064.JPEG","n04524313/n04524313_9842.JPEG","n04524313/n04524313_1.JPEG","n13104059/n13104059_1270.JPEG","n04524313/n04524313_494.JPEG","n03405725/n03405725_4677.JPEG","n02534734/n02534734_12592.JPEG","n04524313/n04524313_9261.JPEG","n13104059/n13104059_3399.JPEG","n03405725/n03405725_1551.JPEG"],"trial_ID":4,"responses":["n02587300/n02587300_8135.JPEG","n02534734/n02534734_9206.JPEG","n02534734/n02534734_5970.JPEG","n02587300/n02587300_4179.JPEG","n02534734/n02534734_12576.JPEG","n02587051/n02587051_837.JPEG","n02587051/n02587051_1064.JPEG","n02534734/n02534734_12592.JPEG"],"rt":16216},{"internal_node_id":"0.0-9.0","time_elapsed":179474,"trial_index":9,"trial_type":"generalization","sample_node":"n03136504","trial_type2":"3_ex","condition":"subordinate_condition","nonsense_word":"canney","train_images":["n03136504/n03136504_898.JPEG","n03136504/n03136504_4930.JPEG","n03136504/n03136504_8149.JPEG"],"test_images":["n13104059/n13104059_11586.JPEG","n03481172/n03481172_17023.JPEG","n03405725/n03405725_21364.JPEG","n03405725/n03405725_11766.JPEG","n13134947/n13134947_2543.JPEG","n03405725/n03405725_21273.JPEG","n03405725/n03405725_13410.JPEG","n03136504/n03136504_6496.JPEG","n03405725/n03405725_21500.JPEG","n01503061/n01503061_4492.JPEG","n03474779/n03474779_4974.JPEG","n03405725/n03405725_30611.JPEG","n01503061/n01503061_1706.JPEG","n04154565/n04154565_11769.JPEG","n03405725/n03405725_33580.JPEG","n03481172/n03481172_10802.JPEG","n03136504/n03136504_470.JPEG","n01503061/n01503061_10728.JPEG","n03474779/n03474779_4955.JPEG","n01503061/n01503061_6122.JPEG","n03405725/n03405725_4321.JPEG","n04524313/n04524313_3165.JPEG","n03405725/n03405725_27540.JPEG","n04154565/n04154565_6044.JPEG"],"trial_ID":4,"responses":["n03136504/n03136504_6496.JPEG","n03474779/n03474779_4974.JPEG","n03136504/n03136504_470.JPEG","n03474779/n03474779_4955.JPEG"],"rt":22251}],"__v":0}
{"_id":{"$oid":"591b50cbe2547c0004193b5e"},"data":[{"internal_node_id":"0.0-2.0","time_elapsed":47649,"trial_index":2,"trial_type":"generalization","sample_node":"n03335030","trial_type2":"10_ex","condition":"subordinate_condition","nonsense_word":"abroll","train_images":["n03335030/n03335030_8756.JPEG","n03335030/n03335030_3970.JPEG","n03335030/n03335030_2979.JPEG","n03335030/n03335030_6022.JPEG","n03335030/n03335030_19034.JPEG","n03335030/n03335030_5569.JPEG","n03335030/n03335030_4247.JPEG","n03335030/n03335030_8177.JPEG","n03335030/n03335030_8012.JPEG","n03335030/n03335030_48139.JPEG"],"test_images":["n03800933/n03800933_20023.JPEG","n02690373/n02690373_2324.JPEG","n04490091/n04490091_17471.JPEG","n04490091/n04490091_9100.JPEG","n04451818/n04451818_4139.JPEG","n02958343/n02958343_2203.JPEG","n03800933/n03800933_23242.JPEG","n13134947/n13134947_3139.JPEG","n02690373/n02690373_9335.JPEG","n04451818/n04451818_27976.JPEG","n03800933/n03800933_11405.JPEG","n04451818/n04451818_23048.JPEG","n13134947/n13134947_2041.JPEG","n03800933/n03800933_17039.JPEG","n04451818/n04451818_10276.JPEG","n04451818/n04451818_861.JPEG","n03800933/n03800933_26919.JPEG","n03051540/n03051540_10558.JPEG","n02958343/n02958343_68.JPEG","n03335030/n03335030_17225.JPEG","n03800933/n03800933_795.JPEG","n03800933/n03800933_17606.JPEG","n03335030/n03335030_18785.JPEG","n04451818/n04451818_1831.JPEG"],"trial_ID":5,"responses":["n02690373/n02690373_2324.JPEG","n02690373/n02690373_9335.JPEG","n03335030/n03335030_17225.JPEG","n03335030/n03335030_18785.JPEG"],"rt":39879},{"internal_node_id":"0.0-3.0","time_elapsed":71572,"trial_index":3,"trial_type":"generalization","sample_node":"n03594734","trial_type2":"3_ex","condition":"subordinate_condition","nonsense_word":"abroll","train_images":["n03594734/n03594734_20518.JPEG","n03594734/n03594734_38285.JPEG","n03594734/n03594734_44820.JPEG"],"test_images":["n03800933/n03800933_21349.JPEG","n04254777/n04254777_18148.JPEG","n03800933/n03800933_14425.JPEG","n02512053/n02512053_2791.JPEG","n03800933/n03800933_7277.JPEG","n02512053/n02512053_7699.JPEG","n03405725/n03405725_1206.JPEG","n02512053/n02512053_11159.JPEG","n03405725/n03405725_18234.JPEG","n04524313/n04524313_5213.JPEG","n04254777/n04254777_5894.JPEG","n03800933/n03800933_3044.JPEG","n04451818/n04451818_18634.JPEG","n04197391/n04197391_1169.JPEG","n04197391/n04197391_3970.JPEG","n03405725/n03405725_7887.JPEG","n01503061/n01503061_17777.JPEG","n03594734/n03594734_1254.JPEG","n03405725/n03405725_34116.JPEG","n03800933/n03800933_22528.JPEG","n03594734/n03594734_30185.JPEG","n04370288/n04370288_12359.JPEG","n03800933/n03800933_9946.JPEG","n04370288/n04370288_9163.JPEG"],"trial_ID":5,"responses":["n04197391/n04197391_1169.JPEG","n03594734/n03594734_1254.JPEG","n03594734/n03594734_30185.JPEG","n04370288/n04370288_12359.JPEG","n04370288/n04370288_9163.JPEG"],"rt":22899},{"internal_node_id":"0.0-4.0","time_elapsed":84323,"trial_index":4,"trial_type":"generalization","sample_node":"n01625562","trial_type2":"10_ex","condition":"subordinate_condition","nonsense_word":"abroll","train_images":["n01625562/n01625562_1243.JPEG","n01625562/n01625562_2574.JPEG","n01625562/n01625562_1046.JPEG","n01625562/n01625562_7670.JPEG","n01625562/n01625562_10934.JPEG","n01625562/n01625562_2417.JPEG","n01625562/n01625562_8544.JPEG","n01625562/n01625562_7564.JPEG","n01625562/n01625562_2163.JPEG","n01625562/n01625562_6942.JPEG"],"test_images":["n03800933/n03800933_3720.JPEG","n04451818/n04451818_27419.JPEG","n03405725/n03405725_13311.JPEG","n01625562/n01625562_2955.JPEG","n01622779/n01622779_2138.JPEG","n03800933/n03800933_9492.JPEG","n04451818/n04451818_17038.JPEG","n13104059/n13104059_8104.JPEG","n01622779/n01622779_5751.JPEG","n13104059/n13104059_15190.JPEG","n01539573/n01539573_550.JPEG","n13104059/n13104059_7460.JPEG","n03405725/n03405725_30176.JPEG","n01625562/n01625562_6264.JPEG","n01539573/n01539573_6404.JPEG","n03405725/n03405725_6187.JPEG","n03800933/n03800933_3914.JPEG","n04451818/n04451818_15071.JPEG","n04451818/n04451818_23599.JPEG","n01539573/n01539573_326.JPEG","n01539573/n01539573_10296.JPEG","n04524313/n04524313_3761.JPEG","n13104059/n13104059_3996.JPEG","n13104059/n13104059_4884.JPEG"],"trial_ID":5,"responses":["n01625562/n01625562_2955.JPEG","n01622779/n01622779_2138.JPEG","n01622779/n01622779_5751.JPEG","n01625562/n01625562_6264.JPEG"],"rt":11724},{"internal_node_id":"0.0-5.0","time_elapsed":97585,"trial_index":5,"trial_type":"generalization","sample_node":"n04380533","trial_type2":"1_ex","condition":"subordinate_condition","nonsense_word":"abroll","train_images":["n04380533/n04380533_3882.JPEG"],"test_images":["n04451818/n04451818_17208.JPEG","n04451818/n04451818_21100.JPEG","n04379243/n04379243_5027.JPEG","n04379243/n04379243_14055.JPEG","n04524313/n04524313_9541.JPEG","n03051540/n03051540_21920.JPEG","n01503061/n01503061_1211.JPEG","n04380533/n04380533_4276.JPEG","n02512053/n02512053_123.JPEG","n04524313/n04524313_5459.JPEG","n03800933/n03800933_26990.JPEG","n04524313/n04524313_4027.JPEG","n04524313/n04524313_5042.JPEG","n03367059/n03367059_1714.JPEG","n01503061/n01503061_13700.JPEG","n13134947/n13134947_1235.JPEG","n03001627/n03001627_14910.JPEG","n01503061/n01503061_6687.JPEG","n02512053/n02512053_1789.JPEG","n13134947/n13134947_4160.JPEG","n04451818/n04451818_1146.JPEG","n03001627/n03001627_456.JPEG","n04380533/n04380533_553.JPEG","n03367059/n03367059_3907.JPEG"],"trial_ID":5,"responses":["n04380533/n04380533_553.JPEG","n03367059/n03367059_3907.JPEG"],"rt":12245},{"internal_node_id":"0.0-6.0","time_elapsed":116141,"trial_index":6,"trial_type":"generalization","sample_node":"n07744559","trial_type2":"1_ex","condition":"subordinate_condition","nonsense_word":"abroll","train_images":["n07744559/n07744559_2561.JPEG"],"test_images":["n01503061/n01503061_11244.JPEG","n01503061/n01503061_2741.JPEG","n03051540/n03051540_39688.JPEG","n03051540/n03051540_6467.JPEG","n01503061/n01503061_239.JPEG","n01503061/n01503061_9136.JPEG","n01503061/n01503061_7092.JPEG","n07744682/n07744682_3135.JPEG","n01503061/n01503061_10090.JPEG","n03051540/n03051540_48544.JPEG","n02512053/n02512053_10610.JPEG","n01503061/n01503061_5802.JPEG","n07739125/n07739125_1229.JPEG","n01503061/n01503061_17516.JPEG","n03405725/n03405725_33155.JPEG","n02512053/n02512053_5294.JPEG","n07744682/n07744682_5327.JPEG","n07744559/n07744559_887.JPEG","n07739125/n07739125_677.JPEG","n03051540/n03051540_56610.JPEG","n07744559/n07744559_5309.JPEG","n02512053/n02512053_10887.JPEG","n07739125/n07739125_7262.JPEG","n07758680/n07758680_21434.JPEG"],"trial_ID":5,"responses":["n07744682/n07744682_3135.JPEG","n07744682/n07744682_5327.JPEG","n07744559/n07744559_887.JPEG","n07744559/n07744559_5309.JPEG","n07758680/n07758680_21434.JPEG"],"rt":17537},{"internal_node_id":"0.0-7.0","time_elapsed":134200,"trial_index":7,"trial_type":"generalization","sample_node":"n04387400","trial_type2":"10_ex","condition":"subordinate_condition","nonsense_word":"abroll","train_images":["n04387400/n04387400_2831.JPEG","n04387400/n04387400_6279.JPEG","n04387400/n04387400_9367.JPEG","n04387400/n04387400_7467.JPEG","n04387400/n04387400_757.JPEG","n04387400/n04387400_2915.JPEG","n04387400/n04387400_1014.JPEG","n04387400/n04387400_12337.JPEG","n04387400/n04387400_12583.JPEG","n04387400/n04387400_678.JPEG"],"test_images":["n04524313/n04524313_427.JPEG","n01503061/n01503061_2205.JPEG","n13104059/n13104059_2221.JPEG","n04524313/n04524313_2740.JPEG","n03928116/n03928116_11434.JPEG","n13134947/n13134947_2603.JPEG","n01503061/n01503061_5914.JPEG","n03467517/n03467517_2282.JPEG","n01503061/n01503061_18419.JPEG","n03405725/n03405725_9094.JPEG","n02512053/n02512053_12822.JPEG","n02803666/n02803666_12738.JPEG","n02512053/n02512053_785.JPEG","n01503061/n01503061_10054.JPEG","n02803666/n02803666_19217.JPEG","n03405725/n03405725_4776.JPEG","n01503061/n01503061_5731.JPEG","n01503061/n01503061_5930.JPEG","n03467517/n03467517_20530.JPEG","n13104059/n13104059_3844.JPEG","n04387400/n04387400_3594.JPEG","n01503061/n01503061_2217.JPEG","n04387400/n04387400_3335.JPEG","n03928116/n03928116_6875.JPEG"],"trial_ID":5,"responses":["n04387400/n04387400_3594.JPEG","n04387400/n04387400_3335.JPEG"],"rt":17038},{"internal_node_id":"0.0-8.0","time_elapsed":155611,"trial_index":8,"trial_type":"generalization","sample_node":"n02536456","trial_type2":"10_ex","condition":"subordinate_condition","nonsense_word":"abroll","train_images":["n02536456/n02536456_4873.JPEG","n02536456/n02536456_4844.JPEG","n02536456/n02536456_12847.JPEG","n02536456/n02536456_3356.JPEG","n02536456/n02536456_3972.JPEG","n02536456/n02536456_13157.JPEG","n02536456/n02536456_3395.JPEG","n02536456/n02536456_3423.JPEG","n02536456/n02536456_11546.JPEG","n02536456/n02536456_491.JPEG"],"test_images":["n02537085/n02537085_8703.JPEG","n02535537/n02535537_4722.JPEG","n03405725/n03405725_19838.JPEG","n03405725/n03405725_1551.JPEG","n03051540/n03051540_1712.JPEG","n04524313/n04524313_9842.JPEG","n04524313/n04524313_1.JPEG","n04524313/n04524313_9261.JPEG","n03051540/n03051540_7300.JPEG","n03051540/n03051540_50765.JPEG","n13104059/n13104059_1270.JPEG","n02537085/n02537085_10388.JPEG","n02537085/n02537085_9505.JPEG","n13104059/n13104059_3399.JPEG","n02535537/n02535537_394.JPEG","n02586543/n02586543_3508.JPEG","n03405725/n03405725_1528.JPEG","n03405725/n03405725_13665.JPEG","n02536456/n02536456_5514.JPEG","n04524313/n04524313_11842.JPEG","n02536456/n02536456_5855.JPEG","n03405725/n03405725_4677.JPEG","n04524313/n04524313_494.JPEG","n13104059/n13104059_8856.JPEG"],"trial_ID":5,"responses":["n02535537/n02535537_4722.JPEG","n02537085/n02537085_10388.JPEG","n02537085/n02537085_9505.JPEG","n02535537/n02535537_394.JPEG","n02586543/n02586543_3508.JPEG","n02536456/n02536456_5514.JPEG","n02536456/n02536456_5855.JPEG"],"rt":20388},{"internal_node_id":"0.0-9.0","time_elapsed":176976,"trial_index":9,"trial_type":"generalization","sample_node":"n04154565","trial_type2":"5_ex","condition":"basic-level_condition","nonsense_word":"abroll","train_images":["n04154565/n04154565_13363.JPEG","n03361683/n03361683_1442.JPEG","n04154565/n04154565_4819.JPEG","n04154565/n04154565_9684.JPEG","n04154565/n04154565_13354.JPEG"],"test_images":["n03405725/n03405725_21364.JPEG","n01503061/n01503061_6122.JPEG","n03405725/n03405725_13410.JPEG","n03405725/n03405725_33580.JPEG","n04140064/n04140064_12006.JPEG","n03923692/n03923692_1191.JPEG","n03405725/n03405725_4321.JPEG","n03405725/n03405725_27540.JPEG","n03405725/n03405725_11766.JPEG","n03405725/n03405725_21273.JPEG","n03405725/n03405725_30611.JPEG","n13104059/n13104059_11586.JPEG","n03923692/n03923692_1823.JPEG","n04140064/n04140064_15716.JPEG","n01503061/n01503061_10728.JPEG","n03405725/n03405725_21500.JPEG","n04524313/n04524313_3165.JPEG","n03361683/n03361683_1636.JPEG","n01503061/n01503061_1706.JPEG","n03361683/n03361683_1618.JPEG","n13134947/n13134947_2543.JPEG","n04140064/n04140064_24666.JPEG","n04140064/n04140064_10286.JPEG","n01503061/n01503061_4492.JPEG"],"trial_ID":5,"responses":["n03923692/n03923692_1191.JPEG","n03923692/n03923692_1823.JPEG","n03361683/n03361683_1636.JPEG","n03361683/n03361683_1618.JPEG"],"rt":20345}],"__v":0}
{"_id":{"$oid":"591b50d0e2547c0004193b5f"},"data":[{"internal_node_id":"0.0-2.0","time_elapsed":38638,"trial_index":2,"trial_type":"generalization","sample_node":"n04467665","trial_type2":"10_ex","condition":"subordinate_condition","nonsense_word":"abroll","train_images":["n04467665/n04467665_23680.JPEG","n04467665/n04467665_4490.JPEG","n04467665/n04467665_3524.JPEG","n04467665/n04467665_26262.JPEG","n04467665/n04467665_2626.JPEG","n04467665/n04467665_1888.JPEG","n04467665/n04467665_7093.JPEG","n04467665/n04467665_14279.JPEG","n04467665/n04467665_21540.JPEG","n04467665/n04467665_34476.JPEG"],"test_images":["n04467665/n04467665_19216.JPEG","n03800933/n03800933_11405.JPEG","n03800933/n03800933_17606.JPEG","n04451818/n04451818_1831.JPEG","n03930630/n03930630_5574.JPEG","n04451818/n04451818_23048.JPEG","n02691156/n02691156_7725.JPEG","n13134947/n13134947_2041.JPEG","n04451818/n04451818_27976.JPEG","n03930630/n03930630_2833.JPEG","n13134947/n13134947_3139.JPEG","n03800933/n03800933_17039.JPEG","n03800933/n03800933_20023.JPEG","n04451818/n04451818_10276.JPEG","n03051540/n03051540_10558.JPEG","n02691156/n02691156_1016.JPEG","n02691156/n02691156_5496.JPEG","n03800933/n03800933_23242.JPEG","n04451818/n04451818_861.JPEG","n02691156/n02691156_12193.JPEG","n03800933/n03800933_795.JPEG","n04451818/n04451818_4139.JPEG","n04467665/n04467665_37479.JPEG","n03800933/n03800933_26919.JPEG"],"trial_ID":16,"responses":["n04467665/n04467665_19216.JPEG","n03930630/n03930630_5574.JPEG","n03930630/n03930630_2833.JPEG"],"rt":34849},{"internal_node_id":"0.0-3.0","time_elapsed":48920,"trial_index":3,"trial_type":"generalization","sample_node":"n04370288","trial_type2":"3_ex","condition":"subordinate_condition","nonsense_word":"abroll","train_images":["n04370288/n04370288_4217.JPEG","n04370288/n04370288_3947.JPEG","n04370288/n04370288_3214.JPEG"],"test_images":["n01503061/n01503061_17777.JPEG","n03405725/n03405725_34116.JPEG","n02512053/n02512053_11159.JPEG","n03594734/n03594734_1721.JPEG","n04370288/n04370288_3133.JPEG","n04197391/n04197391_3970.JPEG","n03800933/n03800933_3044.JPEG","n04370288/n04370288_6172.JPEG","n04254777/n04254777_18148.JPEG","n03405725/n03405725_7887.JPEG","n03800933/n03800933_7277.JPEG","n03405725/n03405725_1206.JPEG","n04254777/n04254777_5894.JPEG","n03800933/n03800933_21349.JPEG","n04451818/n04451818_18634.JPEG","n03800933/n03800933_9946.JPEG","n04524313/n04524313_5213.JPEG","n03800933/n03800933_14425.JPEG","n02512053/n02512053_7699.JPEG","n03594734/n03594734_6313.JPEG","n02512053/n02512053_2791.JPEG","n03800933/n03800933_22528.JPEG","n03405725/n03405725_18234.JPEG","n04197391/n04197391_1169.JPEG"],"trial_ID":16,"responses":["n04370288/n04370288_3133.JPEG","n04370288/n04370288_6172.JPEG","n03594734/n03594734_6313.JPEG"],"rt":9257},{"internal_node_id":"0.0-4.0","time_elapsed":59105,"trial_index":4,"trial_type":"generalization","sample_node":"n01622779","trial_type2":"1_ex","condition":"subordinate_condition","nonsense_word":"abroll","train_images":["n01622779/n01622779_3423.JPEG"],"test_images":["n03800933/n03800933_9492.JPEG","n01539573/n01539573_326.JPEG","n04524313/n04524313_3761.JPEG","n04451818/n04451818_17038.JPEG","n01539573/n01539573_550.JPEG","n03405725/n03405725_30176.JPEG","n01622779/n01622779_1446.JPEG","n04451818/n04451818_27419.JPEG","n01625562/n01625562_3632.JPEG","n04451818/n04451818_23599.JPEG","n01539573/n01539573_6404.JPEG","n03800933/n03800933_3720.JPEG","n01539573/n01539573_10296.JPEG","n13104059/n13104059_7460.JPEG","n01622779/n01622779_2138.JPEG","n04451818/n04451818_15071.JPEG","n01625562/n01625562_1921.JPEG","n13104059/n13104059_15190.JPEG","n13104059/n13104059_4884.JPEG","n03800933/n03800933_3914.JPEG","n03405725/n03405725_6187.JPEG","n13104059/n13104059_3996.JPEG","n03405725/n03405725_13311.JPEG","n13104059/n13104059_8104.JPEG"],"trial_ID":16,"responses":["n01622779/n01622779_1446.JPEG","n01625562/n01625562_3632.JPEG","n01622779/n01622779_2138.JPEG","n01625562/n01625562_1921.JPEG"],"rt":9161},{"internal_node_id":"0.0-5.0","time_elapsed":70009,"trial_index":5,"trial_type":"generalization","sample_node":"n03201035","trial_type2":"10_ex","condition":"subordinate_condition","nonsense_word":"abroll","train_images":["n03201035/n03201035_2594.JPEG","n03201035/n03201035_2366.JPEG","n03201035/n03201035_303.JPEG","n03201035/n03201035_792.JPEG","n03201035/n03201035_10592.JPEG","n03201035/n03201035_461.JPEG","n03201035/n03201035_5517.JPEG","n03201035/n03201035_3.JPEG","n03201035/n03201035_2134.JPEG","n03201035/n03201035_2297.JPEG"],"test_images":["n13134947/n13134947_4160.JPEG","n04524313/n04524313_4027.JPEG","n04524313/n04524313_9541.JPEG","n04451818/n04451818_1146.JPEG","n04451818/n04451818_17208.JPEG","n04524313/n04524313_5459.JPEG","n03201035/n03201035_9501.JPEG","n01503061/n01503061_6687.JPEG","n13134947/n13134947_1235.JPEG","n03620967/n03620967_7268.JPEG","n03001627/n03001627_1377.JPEG","n03001627/n03001627_3718.JPEG","n03800933/n03800933_26990.JPEG","n03620967/n03620967_6466.JPEG","n03051540/n03051540_21920.JPEG","n01503061/n01503061_13700.JPEG","n04451818/n04451818_21100.JPEG","n01503061/n01503061_1211.JPEG","n03636248/n03636248_1176.JPEG","n02512053/n02512053_123.JPEG","n03201035/n03201035_1153.JPEG","n03636248/n03636248_8545.JPEG","n02512053/n02512053_1789.JPEG","n04524313/n04524313_5042.JPEG"],"trial_ID":16,"responses":["n03201035/n03201035_9501.JPEG","n03201035/n03201035_1153.JPEG"],"rt":9882},{"internal_node_id":"0.0-6.0","time_elapsed":80248,"trial_index":6,"trial_type":"generalization","sample_node":"n07744246","trial_type2":"3_ex","condition":"basic-level_condition","nonsense_word":"abroll","train_images":["n07744246/n07744246_8511.JPEG","n07744682/n07744682_5037.JPEG","n07744246/n07744246_6451.JPEG"],"test_images":["n07739125/n07739125_1229.JPEG","n07739125/n07739125_7262.JPEG","n01503061/n01503061_9136.JPEG","n01503061/n01503061_10090.JPEG","n02512053/n02512053_5294.JPEG","n02512053/n02512053_10887.JPEG","n03051540/n03051540_6467.JPEG","n01503061/n01503061_239.JPEG","n01503061/n01503061_17516.JPEG","n07744559/n07744559_6021.JPEG","n07744682/n07744682_6613.JPEG","n02512053/n02512053_10610.JPEG","n01503061/n01503061_11244.JPEG","n07744682/n07744682_5708.JPEG","n01503061/n01503061_7092.JPEG","n07739125/n07739125_677.JPEG","n07758680/n07758680_21434.JPEG","n07744559/n07744559_4931.JPEG","n03051540/n03051540_48544.JPEG","n01503061/n01503061_2741.JPEG","n03051540/n03051540_56610.JPEG","n03051540/n03051540_39688.JPEG","n03405725/n03405725_33155.JPEG","n01503061/n01503061_5802.JPEG"],"trial_ID":16,"responses":["n07744682/n07744682_5708.JPEG","n07758680/n07758680_21434.JPEG","n07744559/n07744559_4931.JPEG"],"rt":9214},{"internal_node_id":"0.0-7.0","time_elapsed":102686,"trial_index":7,"trial_type":"generalization","sample_node":"n03452741","trial_type2":"10_ex","condition":"subordinate_condition","nonsense_word":"abroll","train_images":["n03452741/n03452741_14961.JPEG","n03452741/n03452741_6596.JPEG","n03452741/n03452741_6638.JPEG","n03452741/n03452741_8851.JPEG","n03452741/n03452741_11824.JPEG","n03452741/n03452741_15028.JPEG","n03452741/n03452741_17052.JPEG","n03452741/n03452741_3400.JPEG","n03452741/n03452741_6484.JPEG","n03452741/n03452741_16291.JPEG"],"test_images":["n03452741/n03452741_6174.JPEG","n13134947/n13134947_2603.JPEG","n01503061/n01503061_2217.JPEG","n13104059/n13104059_2221.JPEG","n04515003/n04515003_11438.JPEG","n01503061/n01503061_5731.JPEG","n02512053/n02512053_12822.JPEG","n03405725/n03405725_9094.JPEG","n04524313/n04524313_427.JPEG","n03467517/n03467517_12444.JPEG","n01503061/n01503061_10054.JPEG","n01503061/n01503061_5930.JPEG","n01503061/n01503061_5914.JPEG","n03249569/n03249569_79068.JPEG","n13104059/n13104059_3844.JPEG","n02512053/n02512053_785.JPEG","n04524313/n04524313_2740.JPEG","n01503061/n01503061_2205.JPEG","n03467517/n03467517_11896.JPEG","n04515003/n04515003_87.JPEG","n03467517/n03467517_206.JPEG","n03405725/n03405725_4776.JPEG","n03452741/n03452741_6933.JPEG","n01503061/n01503061_18419.JPEG"],"trial_ID":16,"responses":["n03452741/n03452741_6174.JPEG","n04515003/n04515003_11438.JPEG","n04515003/n04515003_87.JPEG","n03452741/n03452741_6933.JPEG"],"rt":21410},{"internal_node_id":"0.0-8.0","time_elapsed":111199,"trial_index":8,"trial_type":"generalization","sample_node":"n02535537","trial_type2":"5_ex","condition":"subordinate_condition","nonsense_word":"abroll","train_images":["n02535537/n02535537_13474.JPEG","n02535537/n02535537_2614.JPEG","n02535537/n02535537_16032.JPEG","n02535537/n02535537_5119.JPEG","n02535537/n02535537_10243.JPEG"],"test_images":["n02537085/n02537085_10388.JPEG","n03405725/n03405725_13665.JPEG","n13104059/n13104059_3399.JPEG","n03405725/n03405725_1551.JPEG","n03405725/n03405725_1528.JPEG","n02536456/n02536456_6567.JPEG","n13104059/n13104059_1270.JPEG","n03051540/n03051540_50765.JPEG","n04524313/n04524313_9842.JPEG","n02535537/n02535537_3342.JPEG","n03051540/n03051540_7300.JPEG","n04524313/n04524313_11842.JPEG","n02537085/n02537085_8703.JPEG","n02536456/n02536456_556.JPEG","n02535537/n02535537_9127.JPEG","n03405725/n03405725_4677.JPEG","n04524313/n04524313_1.JPEG","n13104059/n13104059_8856.JPEG","n03051540/n03051540_1712.JPEG","n04524313/n04524313_494.JPEG","n02537085/n02537085_9505.JPEG","n02586543/n02586543_3508.JPEG","n03405725/n03405725_19838.JPEG","n04524313/n04524313_9261.JPEG"],"trial_ID":16,"responses":["n02536456/n02536456_6567.JPEG","n02536456/n02536456_556.JPEG"],"rt":7486},{"internal_node_id":"0.0-9.0","time_elapsed":116478,"trial_index":9,"trial_type":"generalization","sample_node":"n04451818","trial_type2":"3_ex","condition":"superordinate_condition","nonsense_word":"abroll","train_images":["n04451818/n04451818_17707.JPEG","n03474779/n03474779_6509.JPEG","n04451818/n04451818_3486.JPEG"],"test_images":["n03405725/n03405725_13410.JPEG","n13134947/n13134947_2543.JPEG","n03405725/n03405725_4321.JPEG","n03405725/n03405725_30611.JPEG","n03136504/n03136504_5604.JPEG","n03405725/n03405725_27540.JPEG","n03405725/n03405725_33580.JPEG","n01503061/n01503061_10728.JPEG","n04154565/n04154565_11769.JPEG","n01503061/n01503061_6122.JPEG","n01503061/n01503061_1706.JPEG","n03405725/n03405725_21273.JPEG","n03405725/n03405725_11766.JPEG","n03481172/n03481172_10802.JPEG","n03481172/n03481172_17023.JPEG","n13104059/n13104059_11586.JPEG","n03405725/n03405725_21364.JPEG","n01503061/n01503061_4492.JPEG","n03474779/n03474779_18860.JPEG","n03405725/n03405725_21500.JPEG","n04154565/n04154565_6044.JPEG","n03136504/n03136504_435.JPEG","n03474779/n03474779_17296.JPEG","n04524313/n04524313_3165.JPEG"],"trial_ID":16,"responses":["n03136504/n03136504_5604.JPEG","n04154565/n04154565_11769.JPEG"],"rt":4260}],"__v":0}
{"_id":{"$oid":"591b50d5e2547c0004193b60"},"data":[{"internal_node_id":"0.0-2.0","time_elapsed":62664,"trial_index":2,"trial_type":"generalization","sample_node":"n04467665","trial_type2":"3_ex","condition":"subordinate_condition","nonsense_word":"coloost","train_images":["n04467665/n04467665_7093.JPEG","n04467665/n04467665_14279.JPEG","n04467665/n04467665_23680.JPEG"],"test_images":["n03800933/n03800933_17606.JPEG","n04451818/n04451818_10276.JPEG","n03800933/n03800933_23242.JPEG","n04451818/n04451818_1831.JPEG","n04451818/n04451818_27976.JPEG","n13134947/n13134947_3139.JPEG","n04467665/n04467665_37479.JPEG","n04451818/n04451818_4139.JPEG","n03800933/n03800933_795.JPEG","n04451818/n04451818_861.JPEG","n03800933/n03800933_20023.JPEG","n02691156/n02691156_5496.JPEG","n03800933/n03800933_17039.JPEG","n02691156/n02691156_7725.JPEG","n03930630/n03930630_5574.JPEG","n13134947/n13134947_2041.JPEG","n03930630/n03930630_2833.JPEG","n02691156/n02691156_1016.JPEG","n02691156/n02691156_12193.JPEG","n04467665/n04467665_19216.JPEG","n03800933/n03800933_26919.JPEG","n04451818/n04451818_23048.JPEG","n03800933/n03800933_11405.JPEG","n03051540/n03051540_10558.JPEG"],"trial_ID":8,"responses":["n03800933/n03800933_17606.JPEG","n03800933/n03800933_20023.JPEG","n03930630/n03930630_5574.JPEG","n03800933/n03800933_26919.JPEG"],"rt":48358},{"internal_node_id":"0.0-3.0","time_elapsed":84670,"trial_index":3,"trial_type":"generalization","sample_node":"n02752496","trial_type2":"3_ex","condition":"subordinate_condition","nonsense_word":"coloost","train_images":["n02752496/n02752496_932.JPEG","n02752496/n02752496_7908.JPEG","n02752496/n02752496_2160.JPEG"],"test_images":["n03800933/n03800933_9946.JPEG","n03622931/n03622931_14346.JPEG","n03800933/n03800933_21349.JPEG","n03800933/n03800933_14425.JPEG","n03405725/n03405725_34116.JPEG","n03800933/n03800933_7277.JPEG","n03622931/n03622931_7966.JPEG","n04197391/n04197391_1349.JPEG","n02512053/n02512053_11159.JPEG","n04524313/n04524313_5213.JPEG","n04451818/n04451818_18634.JPEG","n04197391/n04197391_796.JPEG","n03405725/n03405725_7887.JPEG","n03800933/n03800933_3044.JPEG","n02512053/n02512053_2791.JPEG","n04197391/n04197391_17007.JPEG","n02752496/n02752496_2649.JPEG","n03405725/n03405725_18234.JPEG","n03405725/n03405725_1206.JPEG","n02512053/n02512053_7699.JPEG","n04197391/n04197391_7849.JPEG","n03800933/n03800933_22528.JPEG","n02752496/n02752496_1707.JPEG","n01503061/n01503061_17777.JPEG"],"trial_ID":8,"responses":["n03622931/n03622931_14346.JPEG","n02752496/n02752496_2649.JPEG"],"rt":20952},{"internal_node_id":"0.0-4.0","time_elapsed":103172,"trial_index":4,"trial_type":"generalization","sample_node":"n01614925","trial_type2":"10_ex","condition":"subordinate_condition","nonsense_word":"coloost","train_images":["n01614925/n01614925_8458.JPEG","n01614925/n01614925_7427.JPEG","n01614925/n01614925_476.JPEG","n01614925/n01614925_11414.JPEG","n01614925/n01614925_14166.JPEG","n01614925/n01614925_6613.JPEG","n01614925/n01614925_9255.JPEG","n01614925/n01614925_9689.JPEG","n01614925/n01614925_5767.JPEG","n01614925/n01614925_16385.JPEG"],"test_images":["n01614925/n01614925_2052.JPEG","n01621127/n01621127_17536.JPEG","n04451818/n04451818_27419.JPEG","n03800933/n03800933_3720.JPEG","n01621127/n01621127_14257.JPEG","n03405725/n03405725_6187.JPEG","n01614343/n01614343_5663.JPEG","n04451818/n04451818_17038.JPEG","n13104059/n13104059_15190.JPEG","n03405725/n03405725_30176.JPEG","n04524313/n04524313_3761.JPEG","n03800933/n03800933_3914.JPEG","n01539573/n01539573_8882.JPEG","n13104059/n13104059_3996.JPEG","n04451818/n04451818_15071.JPEG","n01614343/n01614343_3958.JPEG","n13104059/n13104059_4884.JPEG","n01614925/n01614925_1488.JPEG","n01539573/n01539573_9871.JPEG","n03405725/n03405725_13311.JPEG","n04451818/n04451818_23599.JPEG","n13104059/n13104059_7460.JPEG","n03800933/n03800933_9492.JPEG","n13104059/n13104059_8104.JPEG"],"trial_ID":8,"responses":["n01614925/n01614925_2052.JPEG","n01621127/n01621127_14257.JPEG","n01539573/n01539573_9871.JPEG"],"rt":17422},{"internal_node_id":"0.0-5.0","time_elapsed":119320,"trial_index":5,"trial_type":"generalization","sample_node":"n03620967","trial_type2":"3_ex","condition":"subordinate_condition","nonsense_word":"coloost","train_images":["n03620967/n03620967_4401.JPEG","n03620967/n03620967_7358.JPEG","n03620967/n03620967_847.JPEG"],"test_images":["n03636248/n03636248_8545.JPEG","n01503061/n01503061_1211.JPEG","n03620967/n03620967_1403.JPEG","n02512053/n02512053_1789.JPEG","n03001627/n03001627_3718.JPEG","n13134947/n13134947_4160.JPEG","n03051540/n03051540_21920.JPEG","n13134947/n13134947_1235.JPEG","n03201035/n03201035_1134.JPEG","n02512053/n02512053_123.JPEG","n01503061/n01503061_6687.JPEG","n04451818/n04451818_1146.JPEG","n04451818/n04451818_21100.JPEG","n01503061/n01503061_13700.JPEG","n03800933/n03800933_26990.JPEG","n04451818/n04451818_17208.JPEG","n03620967/n03620967_2173.JPEG","n04524313/n04524313_4027.JPEG","n03001627/n03001627_1377.JPEG","n04524313/n04524313_5459.JPEG","n04524313/n04524313_5042.JPEG","n03636248/n03636248_1176.JPEG","n04524313/n04524313_9541.JPEG","n03201035/n03201035_6059.JPEG"],"trial_ID":8,"responses":["n03620967/n03620967_2173.JPEG","n03201035/n03201035_6059.JPEG"],"rt":15060},{"internal_node_id":"0.0-6.0","time_elapsed":131986,"trial_index":6,"trial_type":"generalization","sample_node":"n07760755","trial_type2":"5_ex","condition":"subordinate_condition","nonsense_word":"coloost","train_images":["n07760755/n07760755_406.JPEG","n07760755/n07760755_506.JPEG","n07760755/n07760755_2406.JPEG","n07760755/n07760755_359.JPEG","n07760755/n07760755_2370.JPEG"],"test_images":["n01503061/n01503061_10090.JPEG","n07739125/n07739125_10916.JPEG","n07739125/n07739125_6335.JPEG","n01503061/n01503061_9136.JPEG","n07739125/n07739125_3392.JPEG","n03051540/n03051540_48544.JPEG","n01503061/n01503061_17516.JPEG","n07739125/n07739125_4077.JPEG","n07760755/n07760755_204.JPEG","n07759194/n07759194_3123.JPEG","n02512053/n02512053_5294.JPEG","n01503061/n01503061_5802.JPEG","n03405725/n03405725_33155.JPEG","n01503061/n01503061_7092.JPEG","n01503061/n01503061_2741.JPEG","n07759194/n07759194_6925.JPEG","n03051540/n03051540_39688.JPEG","n01503061/n01503061_239.JPEG","n02512053/n02512053_10887.JPEG","n07760755/n07760755_119.JPEG","n02512053/n02512053_10610.JPEG","n03051540/n03051540_56610.JPEG","n01503061/n01503061_11244.JPEG","n03051540/n03051540_6467.JPEG"],"trial_ID":8,"responses":["n07760755/n07760755_204.JPEG","n07759194/n07759194_6925.JPEG"],"rt":11573},{"internal_node_id":"0.0-7.0","time_elapsed":149823,"trial_index":7,"trial_type":"generalization","sample_node":"n03452741","trial_type2":"5_ex","condition":"subordinate_condition","nonsense_word":"coloost","train_images":["n03452741/n03452741_3400.JPEG","n03452741/n03452741_14961.JPEG","n03452741/n03452741_6596.JPEG","n03452741/n03452741_11824.JPEG","n03452741/n03452741_6484.JPEG"],"test_images":["n13134947/n13134947_2603.JPEG","n04515003/n04515003_87.JPEG","n03405725/n03405725_4776.JPEG","n01503061/n01503061_5914.JPEG","n01503061/n01503061_10054.JPEG","n02512053/n02512053_785.JPEG","n03249569/n03249569_79068.JPEG","n13104059/n13104059_3844.JPEG","n03452741/n03452741_6933.JPEG","n01503061/n01503061_2205.JPEG","n01503061/n01503061_5930.JPEG","n04524313/n04524313_2740.JPEG","n13104059/n13104059_2221.JPEG","n03467517/n03467517_11896.JPEG","n03405725/n03405725_9094.JPEG","n01503061/n01503061_5731.JPEG","n04524313/n04524313_427.JPEG","n02512053/n02512053_12822.JPEG","n01503061/n01503061_18419.JPEG","n03467517/n03467517_206.JPEG","n03467517/n03467517_12444.JPEG","n01503061/n01503061_2217.JPEG","n03452741/n03452741_6174.JPEG","n04515003/n04515003_11438.JPEG"],"trial_ID":8,"responses":["n03452741/n03452741_6933.JPEG","n03452741/n03452741_6174.JPEG","n04515003/n04515003_11438.JPEG"],"rt":16773},{"internal_node_id":"0.0-8.0","time_elapsed":169579,"trial_index":8,"trial_type":"generalization","sample_node":"n02587300","trial_type2":"5_ex","condition":"subordinate_condition","nonsense_word":"coloost","train_images":["n02587300/n02587300_2924.JPEG","n02587300/n02587300_4385.JPEG","n02587300/n02587300_3915.JPEG","n02587300/n02587300_4212.JPEG","n02587300/n02587300_702.JPEG"],"test_images":["n04524313/n04524313_9842.JPEG","n13104059/n13104059_1270.JPEG","n03405725/n03405725_19838.JPEG","n13104059/n13104059_3399.JPEG","n02587300/n02587300_4179.JPEG","n03405725/n03405725_1528.JPEG","n02534734/n02534734_9206.JPEG","n04524313/n04524313_1.JPEG","n04524313/n04524313_9261.JPEG","n02587051/n02587051_837.JPEG","n02534734/n02534734_12576.JPEG","n03405725/n03405725_4677.JPEG","n03051540/n03051540_1712.JPEG","n02587051/n02587051_1064.JPEG","n03051540/n03051540_7300.JPEG","n03405725/n03405725_1551.JPEG","n02534734/n02534734_5970.JPEG","n04524313/n04524313_11842.JPEG","n13104059/n13104059_8856.JPEG","n03051540/n03051540_50765.JPEG","n03405725/n03405725_13665.JPEG","n02587300/n02587300_8135.JPEG","n02534734/n02534734_12592.JPEG","n04524313/n04524313_494.JPEG"],"trial_ID":8,"responses":["n02587300/n02587300_4179.JPEG","n02534734/n02534734_12576.JPEG","n02534734/n02534734_5970.JPEG","n02587300/n02587300_8135.JPEG","n02534734/n02534734_12592.JPEG"],"rt":18653},{"internal_node_id":"0.0-9.0","time_elapsed":183577,"trial_index":9,"trial_type":"generalization","sample_node":"n02783035","trial_type2":"1_ex","condition":"subordinate_condition","nonsense_word":"coloost","train_images":["n02783035/n02783035_658.JPEG"],"test_images":["n04154565/n04154565_12733.JPEG","n03405725/n03405725_21364.JPEG","n13104059/n13104059_11586.JPEG","n03405725/n03405725_21500.JPEG","n03405725/n03405725_30611.JPEG","n03405725/n03405725_4321.JPEG","n02966545/n02966545_3084.JPEG","n04140064/n04140064_9952.JPEG","n13134947/n13134947_2543.JPEG","n03405725/n03405725_13410.JPEG","n04154565/n04154565_796.JPEG","n04524313/n04524313_3165.JPEG","n03405725/n03405725_27540.JPEG","n02783035/n02783035_1443.JPEG","n01503061/n01503061_10728.JPEG","n02966545/n02966545_444.JPEG","n03405725/n03405725_33580.JPEG","n01503061/n01503061_6122.JPEG","n03405725/n03405725_21273.JPEG","n02783035/n02783035_458.JPEG","n03405725/n03405725_11766.JPEG","n04154565/n04154565_5207.JPEG","n01503061/n01503061_4492.JPEG","n01503061/n01503061_1706.JPEG"],"trial_ID":8,"responses":["n02966545/n02966545_3084.JPEG","n02966545/n02966545_444.JPEG","n02783035/n02783035_458.JPEG"],"rt":12900}],"__v":0}
{"_id":{"$oid":"591b50e7e2547c0004193b61"},"data":[{"internal_node_id":"0.0-2.0","time_elapsed":47284,"trial_index":2,"trial_type":"generalization","sample_node":"n03335030","trial_type2":"5_ex","condition":"subordinate_condition","nonsense_word":"claine","train_images":["n03335030/n03335030_3970.JPEG","n03335030/n03335030_6022.JPEG","n03335030/n03335030_5569.JPEG","n03335030/n03335030_8012.JPEG","n03335030/n03335030_2979.JPEG"],"test_images":["n04490091/n04490091_9100.JPEG","n13134947/n13134947_3139.JPEG","n03800933/n03800933_26919.JPEG","n03335030/n03335030_17225.JPEG","n03800933/n03800933_17039.JPEG","n02958343/n02958343_2203.JPEG","n03800933/n03800933_23242.JPEG","n03800933/n03800933_17606.JPEG","n02690373/n02690373_2324.JPEG","n03800933/n03800933_11405.JPEG","n03800933/n03800933_20023.JPEG","n03051540/n03051540_10558.JPEG","n04451818/n04451818_861.JPEG","n04451818/n04451818_10276.JPEG","n03800933/n03800933_795.JPEG","n04490091/n04490091_17471.JPEG","n02690373/n02690373_9335.JPEG","n04451818/n04451818_4139.JPEG","n03335030/n03335030_18785.JPEG","n04451818/n04451818_27976.JPEG","n02958343/n02958343_68.JPEG","n04451818/n04451818_23048.JPEG","n04451818/n04451818_1831.JPEG","n13134947/n13134947_2041.JPEG"],"trial_ID":6,"responses":["n03335030/n03335030_17225.JPEG","n02690373/n02690373_2324.JPEG","n02690373/n02690373_9335.JPEG","n03335030/n03335030_18785.JPEG"],"rt":35061},{"internal_node_id":"0.0-3.0","time_elapsed":74101,"trial_index":3,"trial_type":"generalization","sample_node":"n03238879","trial_type2":"10_ex","condition":"subordinate_condition","nonsense_word":"claine","train_images":["n03238879/n03238879_21265.JPEG","n03238879/n03238879_2772.JPEG","n03238879/n03238879_454.JPEG","n03238879/n03238879_699.JPEG","n03238879/n03238879_13897.JPEG","n03238879/n03238879_1152.JPEG","n03238879/n03238879_22068.JPEG","n03238879/n03238879_4289.JPEG","n03238879/n03238879_1918.JPEG","n03238879/n03238879_1420.JPEG"],"test_images":["n04254777/n04254777_15589.JPEG","n02512053/n02512053_2791.JPEG","n04451818/n04451818_18634.JPEG","n03800933/n03800933_9946.JPEG","n02512053/n02512053_7699.JPEG","n03405725/n03405725_1206.JPEG","n03405725/n03405725_7887.JPEG","n03800933/n03800933_3044.JPEG","n03405725/n03405725_18234.JPEG","n04489008/n04489008_5252.JPEG","n03238879/n03238879_3060.JPEG","n01503061/n01503061_17777.JPEG","n03238879/n03238879_16135.JPEG","n02512053/n02512053_11159.JPEG","n03800933/n03800933_21349.JPEG","n03978966/n03978966_4189.JPEG","n03800933/n03800933_22528.JPEG","n04524313/n04524313_5213.JPEG","n03800933/n03800933_14425.JPEG","n03800933/n03800933_7277.JPEG","n03405725/n03405725_34116.JPEG","n03978966/n03978966_17086.JPEG","n04254777/n04254777_8510.JPEG","n04254777/n04254777_4377.JPEG"],"trial_ID":6,"responses":["n03238879/n03238879_3060.JPEG","n03238879/n03238879_16135.JPEG","n03978966/n03978966_4189.JPEG","n03978966/n03978966_17086.JPEG"],"rt":25771},{"internal_node_id":"0.0-4.0","time_elapsed":91913,"trial_index":4,"trial_type":"generalization","sample_node":"n01539573","trial_type2":"3_ex","condition":"basic-level_condition","nonsense_word":"claine","train_images":["n01539573/n01539573_10763.JPEG","n01536186/n01536186_3826.JPEG","n01539573/n01539573_8680.JPEG"],"test_images":["n04451818/n04451818_27419.JPEG","n13104059/n13104059_15190.JPEG","n03800933/n03800933_9492.JPEG","n01536186/n01536186_1948.JPEG","n01536186/n01536186_243.JPEG","n13104059/n13104059_4884.JPEG","n03405725/n03405725_30176.JPEG","n03800933/n03800933_3914.JPEG","n03800933/n03800933_3720.JPEG","n01613294/n01613294_16634.JPEG","n01613294/n01613294_473.JPEG","n04451818/n04451818_15071.JPEG","n01621127/n01621127_18305.JPEG","n13104059/n13104059_7460.JPEG","n04451818/n04451818_17038.JPEG","n13104059/n13104059_3996.JPEG","n04524313/n04524313_3761.JPEG","n04451818/n04451818_23599.JPEG","n03405725/n03405725_6187.JPEG","n13104059/n13104059_8104.JPEG","n01536644/n01536644_3324.JPEG","n03405725/n03405725_13311.JPEG","n01621127/n01621127_2969.JPEG","n01536644/n01536644_7762.JPEG"],"trial_ID":6,"responses":["n01536186/n01536186_1948.JPEG","n01536186/n01536186_243.JPEG","n01613294/n01613294_16634.JPEG","n01613294/n01613294_473.JPEG","n01621127/n01621127_18305.JPEG","n01536644/n01536644_3324.JPEG","n01621127/n01621127_2969.JPEG","n01536644/n01536644_7762.JPEG"],"rt":16773},{"internal_node_id":"0.0-5.0","time_elapsed":104563,"trial_index":5,"trial_type":"generalization","sample_node":"n03636248","trial_type2":"3_ex","condition":"basic-level_condition","nonsense_word":"claine","train_images":["n03636248/n03636248_1617.JPEG","n04380533/n04380533_3882.JPEG","n03636248/n03636248_12578.JPEG"],"test_images":["n04451818/n04451818_17208.JPEG","n03367059/n03367059_3907.JPEG","n02512053/n02512053_1789.JPEG","n04380533/n04380533_4276.JPEG","n03800933/n03800933_26990.JPEG","n04379243/n04379243_5027.JPEG","n03001627/n03001627_14910.JPEG","n03001627/n03001627_456.JPEG","n13134947/n13134947_1235.JPEG","n04524313/n04524313_5459.JPEG","n02512053/n02512053_123.JPEG","n04524313/n04524313_4027.JPEG","n04380533/n04380533_553.JPEG","n01503061/n01503061_6687.JPEG","n04451818/n04451818_21100.JPEG","n01503061/n01503061_1211.JPEG","n13134947/n13134947_4160.JPEG","n03367059/n03367059_1714.JPEG","n04524313/n04524313_9541.JPEG","n04524313/n04524313_5042.JPEG","n04379243/n04379243_14055.JPEG","n04451818/n04451818_1146.JPEG","n01503061/n01503061_13700.JPEG","n03051540/n03051540_21920.JPEG"],"trial_ID":6,"responses":["n03367059/n03367059_3907.JPEG","n04380533/n04380533_553.JPEG"],"rt":11612},{"internal_node_id":"0.0-6.0","time_elapsed":134150,"trial_index":6,"trial_type":"generalization","sample_node":"n07740220","trial_type2":"1_ex","condition":"subordinate_condition","nonsense_word":"claine","train_images":["n07740220/n07740220_10642.JPEG"],"test_images":["n07758680/n07758680_532.JPEG","n03405725/n03405725_33155.JPEG","n02512053/n02512053_10610.JPEG","n07758680/n07758680_6514.JPEG","n03051540/n03051540_48544.JPEG","n07740220/n07740220_2390.JPEG","n07758680/n07758680_8288.JPEG","n01503061/n01503061_2741.JPEG","n03051540/n03051540_6467.JPEG","n01503061/n01503061_239.JPEG","n01503061/n01503061_17516.JPEG","n01503061/n01503061_5802.JPEG","n01503061/n01503061_10090.JPEG","n07740954/n07740954_2848.JPEG","n01503061/n01503061_7092.JPEG","n03051540/n03051540_56610.JPEG","n01503061/n01503061_11244.JPEG","n07740220/n07740220_2210.JPEG","n02512053/n02512053_5294.JPEG","n03051540/n03051540_39688.JPEG","n07744246/n07744246_3044.JPEG","n07740954/n07740954_22387.JPEG","n01503061/n01503061_9136.JPEG","n02512053/n02512053_10887.JPEG"],"trial_ID":6,"responses":["n07740220/n07740220_2390.JPEG","n07740954/n07740954_2848.JPEG","n07740954/n07740954_22387.JPEG"],"rt":28548},{"internal_node_id":"0.0-7.0","time_elapsed":149271,"trial_index":7,"trial_type":"generalization","sample_node":"n04515003","trial_type2":"10_ex","condition":"subordinate_condition","nonsense_word":"claine","train_images":["n04515003/n04515003_6531.JPEG","n04515003/n04515003_32403.JPEG","n04515003/n04515003_9773.JPEG","n04515003/n04515003_2650.JPEG","n04515003/n04515003_14949.JPEG","n04515003/n04515003_752.JPEG","n04515003/n04515003_14799.JPEG","n04515003/n04515003_24753.JPEG","n04515003/n04515003_6486.JPEG","n04515003/n04515003_924.JPEG"],"test_images":["n03452741/n03452741_7082.JPEG","n03405725/n03405725_4776.JPEG","n01503061/n01503061_2217.JPEG","n13134947/n13134947_2603.JPEG","n01503061/n01503061_2205.JPEG","n02512053/n02512053_785.JPEG","n03467517/n03467517_12444.JPEG","n13104059/n13104059_2221.JPEG","n04524313/n04524313_427.JPEG","n01503061/n01503061_10054.JPEG","n03249569/n03249569_79068.JPEG","n02512053/n02512053_12822.JPEG","n01503061/n01503061_5930.JPEG","n01503061/n01503061_5731.JPEG","n03467517/n03467517_11896.JPEG","n13104059/n13104059_3844.JPEG","n03405725/n03405725_9094.JPEG","n04515003/n04515003_10918.JPEG","n03467517/n03467517_206.JPEG","n03452741/n03452741_5978.JPEG","n01503061/n01503061_18419.JPEG","n04515003/n04515003_6921.JPEG","n04524313/n04524313_2740.JPEG","n01503061/n01503061_5914.JPEG"],"trial_ID":6,"responses":["n03452741/n03452741_7082.JPEG","n04515003/n04515003_10918.JPEG"],"rt":14075},{"internal_node_id":"0.0-8.0","time_elapsed":184419,"trial_index":8,"trial_type":"generalization","sample_node":"n02538010","trial_type2":"3_ex","condition":"subordinate_condition","nonsense_word":"claine","train_images":["n02538010/n02538010_11477.JPEG","n02538010/n02538010_11440.JPEG","n02538010/n02538010_9093.JPEG"],"test_images":["n04524313/n04524313_9842.JPEG","n03051540/n03051540_1712.JPEG","n02534734/n02534734_6131.JPEG","n04524313/n04524313_9261.JPEG","n13104059/n13104059_8856.JPEG","n03051540/n03051540_50765.JPEG","n02538010/n02538010_10139.JPEG","n13104059/n13104059_3399.JPEG","n03405725/n03405725_19838.JPEG","n02537525/n02537525_3435.JPEG","n03405725/n03405725_1551.JPEG","n02537525/n02537525_485.JPEG","n02534734/n02534734_13206.JPEG","n03405725/n03405725_13665.JPEG","n02534734/n02534734_6427.JPEG","n04524313/n04524313_1.JPEG","n03051540/n03051540_7300.JPEG","n02538010/n02538010_9756.JPEG","n03405725/n03405725_4677.JPEG","n13104059/n13104059_1270.JPEG","n04524313/n04524313_494.JPEG","n02586543/n02586543_1071.JPEG","n03405725/n03405725_1528.JPEG","n04524313/n04524313_11842.JPEG"],"trial_ID":6,"responses":["n02534734/n02534734_6131.JPEG","n02538010/n02538010_10139.JPEG","n02537525/n02537525_485.JPEG","n02534734/n02534734_13206.JPEG","n02534734/n02534734_6427.JPEG","n02538010/n02538010_9756.JPEG","n02586543/n02586543_1071.JPEG"],"rt":34112},{"internal_node_id":"0.0-9.0","time_elapsed":203576,"trial_index":9,"trial_type":"generalization","sample_node":"n03136504","trial_type2":"1_ex","condition":"subordinate_condition","nonsense_word":"claine","train_images":["n03136504/n03136504_8149.JPEG"],"test_images":["n03405725/n03405725_21273.JPEG","n03405725/n03405725_21364.JPEG","n03405725/n03405725_11766.JPEG","n03405725/n03405725_4321.JPEG","n03481172/n03481172_10802.JPEG","n13134947/n13134947_2543.JPEG","n04154565/n04154565_6044.JPEG","n03405725/n03405725_30611.JPEG","n03474779/n03474779_4955.JPEG","n03405725/n03405725_21500.JPEG","n03405725/n03405725_33580.JPEG","n01503061/n01503061_1706.JPEG","n01503061/n01503061_10728.JPEG","n03136504/n03136504_470.JPEG","n03474779/n03474779_4974.JPEG","n01503061/n01503061_4492.JPEG","n01503061/n01503061_6122.JPEG","n04524313/n04524313_3165.JPEG","n03481172/n03481172_17023.JPEG","n13104059/n13104059_11586.JPEG","n03136504/n03136504_6496.JPEG","n03405725/n03405725_13410.JPEG","n03405725/n03405725_27540.JPEG","n04154565/n04154565_11769.JPEG"],"trial_ID":6,"responses":["n03474779/n03474779_4955.JPEG","n03136504/n03136504_6496.JPEG"],"rt":18102}],"__v":0}
