{"_id":{"$oid":"591ba9fda4d39700047059a6"},"data":[{"internal_node_id":"0.0-2.0","time_elapsed":41437,"trial_index":2,"trial_type":"generalization","sample_node":"n04524313","trial_type2":"10_ex","condition":"superordinate_condition","nonsense_word":"coloost","train_images":["n04524313/n04524313_18960.JPEG","n04524313/n04524313_26647.JPEG","n04524313/n04524313_6316.JPEG","n04524313/n04524313_1700.JPEG","n02690373/n02690373_2746.JPEG","n04524313/n04524313_23007.JPEG","n04524313/n04524313_2189.JPEG","n04524313/n04524313_4854.JPEG","n04524313/n04524313_289.JPEG","n04524313/n04524313_4384.JPEG"],"test_images":["n04490091/n04490091_13312.JPEG","n02958343/n02958343_10092.JPEG","n04451818/n04451818_13828.JPEG","n03800933/n03800933_9148.JPEG","n01503061/n01503061_8034.JPEG","n13134947/n13134947_1958.JPEG","n13134947/n13134947_4113.JPEG","n13134947/n13134947_4398.JPEG","n04490091/n04490091_8878.JPEG","n01503061/n01503061_5741.JPEG","n02690373/n02690373_5845.JPEG","n03335030/n03335030_34072.JPEG","n04451818/n04451818_23231.JPEG","n02690373/n02690373_1796.JPEG","n04490091/n04490091_4468.JPEG","n03800933/n03800933_9914.JPEG","n03405725/n03405725_18863.JPEG","n03335030/n03335030_4935.JPEG","n03405725/n03405725_3198.JPEG","n13104059/n13104059_8861.JPEG","n01503061/n01503061_3828.JPEG","n03800933/n03800933_20806.JPEG","n03800933/n03800933_7469.JPEG","n13134947/n13134947_2119.JPEG"],"trial_ID":30,"responses":["n04490091/n04490091_13312.JPEG","n02958343/n02958343_10092.JPEG","n02690373/n02690373_5845.JPEG","n03335030/n03335030_34072.JPEG","n02690373/n02690373_1796.JPEG","n04490091/n04490091_4468.JPEG","n03335030/n03335030_4935.JPEG"],"rt":33866},{"internal_node_id":"0.0-3.0","time_elapsed":51769,"trial_index":3,"trial_type":"generalization","sample_node":"n02752496","trial_type2":"1_ex","condition":"subordinate_condition","nonsense_word":"coloost","train_images":["n02752496/n02752496_3804.JPEG"],"test_images":["n04489008/n04489008_11460.JPEG","n03800933/n03800933_24073.JPEG","n03800933/n03800933_5501.JPEG","n04524313/n04524313_4370.JPEG","n03800933/n03800933_987.JPEG","n03800933/n03800933_22954.JPEG","n13134947/n13134947_2405.JPEG","n02512053/n02512053_7319.JPEG","n04451818/n04451818_14765.JPEG","n02752496/n02752496_1192.JPEG","n13104059/n13104059_5430.JPEG","n04489008/n04489008_10746.JPEG","n02512053/n02512053_5553.JPEG","n03405725/n03405725_13560.JPEG","n04489008/n04489008_2297.JPEG","n03622931/n03622931_12311.JPEG","n02512053/n02512053_5513.JPEG","n03800933/n03800933_9101.JPEG","n04489008/n04489008_15278.JPEG","n02512053/n02512053_2821.JPEG","n03405725/n03405725_1055.JPEG","n02752496/n02752496_4377.JPEG","n03622931/n03622931_9158.JPEG","n03800933/n03800933_27639.JPEG"],"trial_ID":30,"responses":["n02752496/n02752496_1192.JPEG","n04489008/n04489008_10746.JPEG","n03622931/n03622931_12311.JPEG","n02752496/n02752496_4377.JPEG"],"rt":9317},{"internal_node_id":"0.0-4.0","time_elapsed":62003,"trial_index":4,"trial_type":"generalization","sample_node":"n01614343","trial_type2":"10_ex","condition":"subordinate_condition","nonsense_word":"coloost","train_images":["n01614343/n01614343_821.JPEG","n01614343/n01614343_4005.JPEG","n01614343/n01614343_1287.JPEG","n01614343/n01614343_234.JPEG","n01614343/n01614343_1867.JPEG","n01614343/n01614343_1872.JPEG","n01614343/n01614343_5373.JPEG","n01614343/n01614343_5978.JPEG","n01614343/n01614343_2475.JPEG","n01614343/n01614343_6610.JPEG"],"test_images":["n03051540/n03051540_6985.JPEG","n01614925/n01614925_6326.JPEG","n03051540/n03051540_8878.JPEG","n01621127/n01621127_767.JPEG","n04524313/n04524313_951.JPEG","n01614343/n01614343_3595.JPEG","n04524313/n04524313_9675.JPEG","n03405725/n03405725_27120.JPEG","n03405725/n03405725_134.JPEG","n01621127/n01621127_9312.JPEG","n01539573/n01539573_2662.JPEG","n03051540/n03051540_44361.JPEG","n04524313/n04524313_1342.JPEG","n02512053/n02512053_7990.JPEG","n13104059/n13104059_6744.JPEG","n01614343/n01614343_996.JPEG","n04524313/n04524313_21978.JPEG","n13104059/n13104059_4929.JPEG","n03051540/n03051540_20248.JPEG","n13104059/n13104059_8248.JPEG","n01614925/n01614925_2416.JPEG","n04524313/n04524313_8214.JPEG","n04451818/n04451818_22131.JPEG","n01539573/n01539573_2438.JPEG"],"trial_ID":30,"responses":["n01614343/n01614343_3595.JPEG","n01614343/n01614343_996.JPEG"],"rt":9221},{"internal_node_id":"0.0-5.0","time_elapsed":69705,"trial_index":5,"trial_type":"generalization","sample_node":"n02738535","trial_type2":"1_ex","condition":"subordinate_condition","nonsense_word":"coloost","train_images":["n02738535/n02738535_10531.JPEG"],"test_images":["n03051540/n03051540_53260.JPEG","n01503061/n01503061_4572.JPEG","n04379243/n04379243_13890.JPEG","n04451818/n04451818_11354.JPEG","n02738535/n02738535_15512.JPEG","n04451818/n04451818_6348.JPEG","n04331277/n04331277_5580.JPEG","n03051540/n03051540_19997.JPEG","n02738535/n02738535_3897.JPEG","n04379243/n04379243_13010.JPEG","n03051540/n03051540_9823.JPEG","n03051540/n03051540_17572.JPEG","n04379243/n04379243_29906.JPEG","n04451818/n04451818_19369.JPEG","n02512053/n02512053_8584.JPEG","n04331277/n04331277_5495.JPEG","n03800933/n03800933_12810.JPEG","n04451818/n04451818_27262.JPEG","n13104059/n13104059_8630.JPEG","n04379243/n04379243_6075.JPEG","n01503061/n01503061_11028.JPEG","n01503061/n01503061_5182.JPEG","n04451818/n04451818_18686.JPEG","n02512053/n02512053_3574.JPEG"],"trial_ID":30,"responses":["n02738535/n02738535_15512.JPEG","n02738535/n02738535_3897.JPEG"],"rt":6691},{"internal_node_id":"0.0-6.0","time_elapsed":81629,"trial_index":6,"trial_type":"generalization","sample_node":"n07759194","trial_type2":"10_ex","condition":"subordinate_condition","nonsense_word":"coloost","train_images":["n07759194/n07759194_428.JPEG","n07759194/n07759194_253.JPEG","n07759194/n07759194_1312.JPEG","n07759194/n07759194_6428.JPEG","n07759194/n07759194_2838.JPEG","n07759194/n07759194_6456.JPEG","n07759194/n07759194_4068.JPEG","n07759194/n07759194_6874.JPEG","n07759194/n07759194_6729.JPEG","n07759194/n07759194_6718.JPEG"],"test_images":["n07760755/n07760755_990.JPEG","n04524313/n04524313_2147.JPEG","n03405725/n03405725_31773.JPEG","n07744246/n07744246_12742.JPEG","n13104059/n13104059_10843.JPEG","n04451818/n04451818_8795.JPEG","n01503061/n01503061_15344.JPEG","n13104059/n13104059_7564.JPEG","n01503061/n01503061_9907.JPEG","n01503061/n01503061_8848.JPEG","n07759194/n07759194_6280.JPEG","n04451818/n04451818_16164.JPEG","n04451818/n04451818_10191.JPEG","n07759194/n07759194_6085.JPEG","n03405725/n03405725_4096.JPEG","n07739125/n07739125_8834.JPEG","n02512053/n02512053_2095.JPEG","n07744246/n07744246_7592.JPEG","n13104059/n13104059_6408.JPEG","n01503061/n01503061_13700.JPEG","n07760755/n07760755_549.JPEG","n07744246/n07744246_7674.JPEG","n02512053/n02512053_2160.JPEG","n01503061/n01503061_9869.JPEG"],"trial_ID":30,"responses":["n07760755/n07760755_990.JPEG","n07760755/n07760755_549.JPEG","n07744246/n07744246_7674.JPEG"],"rt":10911},{"internal_node_id":"0.0-7.0","time_elapsed":94359,"trial_index":7,"trial_type":"generalization","sample_node":"n03800933","trial_type2":"10_ex","condition":"superordinate_condition","nonsense_word":"coloost","train_images":["n03800933/n03800933_16992.JPEG","n03800933/n03800933_23996.JPEG","n03272010/n03272010_3202.JPEG","n03800933/n03800933_8987.JPEG","n03800933/n03800933_15336.JPEG","n03800933/n03800933_19855.JPEG","n03800933/n03800933_6834.JPEG","n03800933/n03800933_411.JPEG","n03800933/n03800933_19268.JPEG","n03800933/n03800933_11924.JPEG"],"test_images":["n03272010/n03272010_274.JPEG","n01503061/n01503061_5783.JPEG","n03405725/n03405725_13521.JPEG","n13104059/n13104059_3144.JPEG","n03928116/n03928116_14262.JPEG","n01503061/n01503061_3442.JPEG","n03405725/n03405725_21781.JPEG","n02676566/n02676566_752.JPEG","n03249569/n03249569_18813.JPEG","n03051540/n03051540_51061.JPEG","n02676566/n02676566_9566.JPEG","n01503061/n01503061_3115.JPEG","n13104059/n13104059_12631.JPEG","n01503061/n01503061_239.JPEG","n02512053/n02512053_2583.JPEG","n03051540/n03051540_10642.JPEG","n01503061/n01503061_9938.JPEG","n01503061/n01503061_7526.JPEG","n03249569/n03249569_35810.JPEG","n03405725/n03405725_36132.JPEG","n03928116/n03928116_8316.JPEG","n03272010/n03272010_6177.JPEG","n03405725/n03405725_18105.JPEG","n01503061/n01503061_17552.JPEG"],"trial_ID":30,"responses":["n03272010/n03272010_274.JPEG","n03928116/n03928116_14262.JPEG","n02676566/n02676566_752.JPEG","n03249569/n03249569_18813.JPEG","n03928116/n03928116_8316.JPEG","n03272010/n03272010_6177.JPEG"],"rt":11716},{"internal_node_id":"0.0-8.0","time_elapsed":102015,"trial_index":8,"trial_type":"generalization","sample_node":"n02587300","trial_type2":"5_ex","condition":"subordinate_condition","nonsense_word":"coloost","train_images":["n02587300/n02587300_2023.JPEG","n02587300/n02587300_6767.JPEG","n02587300/n02587300_6144.JPEG","n02587300/n02587300_7132.JPEG","n02587300/n02587300_5064.JPEG"],"test_images":["n13134947/n13134947_12631.JPEG","n04524313/n04524313_179.JPEG","n03800933/n03800933_17337.JPEG","n03800933/n03800933_525.JPEG","n02534734/n02534734_8367.JPEG","n04524313/n04524313_4260.JPEG","n02587300/n02587300_5261.JPEG","n02534734/n02534734_789.JPEG","n13134947/n13134947_3185.JPEG","n02587300/n02587300_2776.JPEG","n03405725/n03405725_28677.JPEG","n04524313/n04524313_9693.JPEG","n02587051/n02587051_655.JPEG","n03405725/n03405725_8077.JPEG","n02587051/n02587051_172.JPEG","n13134947/n13134947_13744.JPEG","n02534734/n02534734_2086.JPEG","n03051540/n03051540_4811.JPEG","n13134947/n13134947_3261.JPEG","n04524313/n04524313_16704.JPEG","n02534734/n02534734_6609.JPEG","n03405725/n03405725_8256.JPEG","n04524313/n04524313_4873.JPEG","n04451818/n04451818_11373.JPEG"],"trial_ID":30,"responses":["n02587300/n02587300_5261.JPEG","n02534734/n02534734_789.JPEG","n02587051/n02587051_172.JPEG"],"rt":6642},{"internal_node_id":"0.0-9.0","time_elapsed":111320,"trial_index":9,"trial_type":"generalization","sample_node":"n04451818","trial_type2":"10_ex","condition":"superordinate_condition","nonsense_word":"coloost","train_images":["n04451818/n04451818_16106.JPEG","n04451818/n04451818_4834.JPEG","n04451818/n04451818_12941.JPEG","n04451818/n04451818_4683.JPEG","n04451818/n04451818_9807.JPEG","n03474779/n03474779_12748.JPEG","n04451818/n04451818_14668.JPEG","n04451818/n04451818_27468.JPEG","n04451818/n04451818_9746.JPEG","n04451818/n04451818_21506.JPEG"],"test_images":["n03051540/n03051540_14032.JPEG","n03474779/n03474779_10221.JPEG","n04154565/n04154565_10881.JPEG","n13104059/n13104059_7303.JPEG","n03481172/n03481172_2694.JPEG","n04524313/n04524313_3273.JPEG","n04524313/n04524313_3024.JPEG","n03800933/n03800933_6669.JPEG","n03136504/n03136504_2190.JPEG","n03136504/n03136504_3518.JPEG","n01503061/n01503061_18208.JPEG","n04154565/n04154565_9924.JPEG","n03474779/n03474779_8446.JPEG","n03051540/n03051540_8360.JPEG","n02512053/n02512053_4648.JPEG","n04524313/n04524313_1701.JPEG","n04524313/n04524313_10275.JPEG","n01503061/n01503061_191.JPEG","n04524313/n04524313_2689.JPEG","n03800933/n03800933_4484.JPEG","n01503061/n01503061_9149.JPEG","n04524313/n04524313_1172.JPEG","n03481172/n03481172_6521.JPEG","n02512053/n02512053_2821.JPEG"],"trial_ID":30,"responses":["n03481172/n03481172_2694.JPEG","n04154565/n04154565_9924.JPEG","n03800933/n03800933_4484.JPEG","n03481172/n03481172_6521.JPEG"],"rt":8291}],"__v":0}
{"_id":{"$oid":"591ba9fda4d39700047059a7"},"data":[{"internal_node_id":"0.0-2.0","time_elapsed":45876,"trial_index":2,"trial_type":"generalization","sample_node":"n04467665","trial_type2":"5_ex","condition":"subordinate_condition","nonsense_word":"aftion","train_images":["n04467665/n04467665_11888.JPEG","n04467665/n04467665_33012.JPEG","n04467665/n04467665_21969.JPEG","n04467665/n04467665_42482.JPEG","n04467665/n04467665_21379.JPEG"],"test_images":["n03405725/n03405725_18863.JPEG","n13134947/n13134947_2119.JPEG","n13134947/n13134947_4398.JPEG","n03930630/n03930630_6833.JPEG","n02958343/n02958343_13818.JPEG","n13104059/n13104059_8861.JPEG","n03800933/n03800933_7469.JPEG","n04451818/n04451818_13828.JPEG","n03930630/n03930630_12415.JPEG","n03800933/n03800933_9148.JPEG","n13134947/n13134947_4113.JPEG","n03800933/n03800933_9914.JPEG","n01503061/n01503061_5741.JPEG","n04467665/n04467665_30634.JPEG","n03405725/n03405725_3198.JPEG","n04467665/n04467665_25885.JPEG","n01503061/n01503061_3828.JPEG","n01503061/n01503061_8034.JPEG","n02958343/n02958343_10506.JPEG","n13134947/n13134947_1958.JPEG","n04451818/n04451818_23231.JPEG","n02958343/n02958343_81808.JPEG","n03800933/n03800933_20806.JPEG","n02958343/n02958343_11614.JPEG"],"trial_ID":21,"responses":["n04467665/n04467665_25885.JPEG"],"rt":37411},{"internal_node_id":"0.0-3.0","time_elapsed":55697,"trial_index":3,"trial_type":"generalization","sample_node":"n03238879","trial_type2":"1_ex","condition":"subordinate_condition","nonsense_word":"aftion","train_images":["n03238879/n03238879_11844.JPEG"],"test_images":["n03800933/n03800933_27639.JPEG","n02512053/n02512053_5553.JPEG","n04524313/n04524313_4370.JPEG","n02512053/n02512053_5513.JPEG","n03238879/n03238879_9118.JPEG","n03800933/n03800933_987.JPEG","n03800933/n03800933_5501.JPEG","n03405725/n03405725_13560.JPEG","n04254777/n04254777_16509.JPEG","n03238879/n03238879_8539.JPEG","n02512053/n02512053_2821.JPEG","n13134947/n13134947_2405.JPEG","n04254777/n04254777_17355.JPEG","n04451818/n04451818_14765.JPEG","n04254777/n04254777_16757.JPEG","n03800933/n03800933_24073.JPEG","n03978966/n03978966_1605.JPEG","n03800933/n03800933_9101.JPEG","n02512053/n02512053_7319.JPEG","n04254777/n04254777_18133.JPEG","n03405725/n03405725_1055.JPEG","n03800933/n03800933_22954.JPEG","n13104059/n13104059_5430.JPEG","n03978966/n03978966_2600.JPEG"],"trial_ID":21,"responses":["n03238879/n03238879_9118.JPEG"],"rt":8728},{"internal_node_id":"0.0-4.0","time_elapsed":72603,"trial_index":4,"trial_type":"generalization","sample_node":"n01536644","trial_type2":"3_ex","condition":"subordinate_condition","nonsense_word":"aftion","train_images":["n01536644/n01536644_700.JPEG","n01536644/n01536644_6710.JPEG","n01536644/n01536644_9542.JPEG"],"test_images":["n04451818/n04451818_22131.JPEG","n04524313/n04524313_21978.JPEG","n01536186/n01536186_1913.JPEG","n01536644/n01536644_6191.JPEG","n03405725/n03405725_27120.JPEG","n04524313/n04524313_8214.JPEG","n03405725/n03405725_134.JPEG","n03051540/n03051540_44361.JPEG","n02512053/n02512053_7990.JPEG","n03051540/n03051540_6985.JPEG","n01613294/n01613294_2768.JPEG","n01621127/n01621127_1258.JPEG","n01613294/n01613294_9776.JPEG","n13104059/n13104059_6744.JPEG","n13104059/n13104059_8248.JPEG","n04524313/n04524313_1342.JPEG","n04524313/n04524313_951.JPEG","n13104059/n13104059_4929.JPEG","n04524313/n04524313_9675.JPEG","n03051540/n03051540_20248.JPEG","n01536186/n01536186_2743.JPEG","n01536644/n01536644_8405.JPEG","n03051540/n03051540_8878.JPEG","n01613294/n01613294_2289.JPEG"],"trial_ID":21,"responses":["n01536186/n01536186_1913.JPEG","n01613294/n01613294_2768.JPEG","n01613294/n01613294_9776.JPEG","n01536186/n01536186_2743.JPEG","n01613294/n01613294_2289.JPEG"],"rt":15789},{"internal_node_id":"0.0-5.0","time_elapsed":87101,"trial_index":5,"trial_type":"generalization","sample_node":"n03367059","trial_type2":"3_ex","condition":"subordinate_condition","nonsense_word":"aftion","train_images":["n03367059/n03367059_1129.JPEG","n03367059/n03367059_9446.JPEG","n03367059/n03367059_6172.JPEG"],"test_images":["n04379243/n04379243_7123.JPEG","n04451818/n04451818_19369.JPEG","n03051540/n03051540_17572.JPEG","n03367059/n03367059_6384.JPEG","n03367059/n03367059_2781.JPEG","n04451818/n04451818_27262.JPEG","n03051540/n03051540_53260.JPEG","n04451818/n04451818_18686.JPEG","n01503061/n01503061_4572.JPEG","n04380533/n04380533_2592.JPEG","n03800933/n03800933_12810.JPEG","n03051540/n03051540_9823.JPEG","n04380533/n04380533_5591.JPEG","n02512053/n02512053_8584.JPEG","n03051540/n03051540_19997.JPEG","n02512053/n02512053_3574.JPEG","n03001627/n03001627_1504.JPEG","n01503061/n01503061_5182.JPEG","n01503061/n01503061_11028.JPEG","n04451818/n04451818_6348.JPEG","n13104059/n13104059_8630.JPEG","n04451818/n04451818_11354.JPEG","n04379243/n04379243_4708.JPEG","n03001627/n03001627_9786.JPEG"],"trial_ID":21,"responses":["n03367059/n03367059_6384.JPEG","n04380533/n04380533_2592.JPEG","n04380533/n04380533_5591.JPEG"],"rt":13379},{"internal_node_id":"0.0-6.0","time_elapsed":101292,"trial_index":6,"trial_type":"generalization","sample_node":"n07758680","trial_type2":"3_ex","condition":"basic-level_condition","nonsense_word":"aftion","train_images":["n07758680/n07758680_6199.JPEG","n07758680/n07758680_8387.JPEG","n07760755/n07760755_2115.JPEG"],"test_images":["n07744246/n07744246_7592.JPEG","n03405725/n03405725_4096.JPEG","n04524313/n04524313_2147.JPEG","n07759194/n07759194_5690.JPEG","n01503061/n01503061_9907.JPEG","n07759194/n07759194_6646.JPEG","n01503061/n01503061_8848.JPEG","n13104059/n13104059_7564.JPEG","n13104059/n13104059_10843.JPEG","n04451818/n04451818_16164.JPEG","n07760755/n07760755_1229.JPEG","n07744246/n07744246_7674.JPEG","n01503061/n01503061_9869.JPEG","n01503061/n01503061_13700.JPEG","n04451818/n04451818_10191.JPEG","n02512053/n02512053_2160.JPEG","n01503061/n01503061_15344.JPEG","n07760755/n07760755_1613.JPEG","n13104059/n13104059_6408.JPEG","n07744246/n07744246_12742.JPEG","n02512053/n02512053_2095.JPEG","n03405725/n03405725_31773.JPEG","n07739125/n07739125_8834.JPEG","n04451818/n04451818_8795.JPEG"],"trial_ID":21,"responses":["n07744246/n07744246_7592.JPEG","n07759194/n07759194_6646.JPEG","n07760755/n07760755_1229.JPEG","n07744246/n07744246_7674.JPEG","n07760755/n07760755_1613.JPEG"],"rt":13073},{"internal_node_id":"0.0-7.0","time_elapsed":112598,"trial_index":7,"trial_type":"generalization","sample_node":"n03272010","trial_type2":"1_ex","condition":"subordinate_condition","nonsense_word":"aftion","train_images":["n03272010/n03272010_3202.JPEG"],"test_images":["n02676566/n02676566_9566.JPEG","n01503061/n01503061_239.JPEG","n03249569/n03249569_35810.JPEG","n02512053/n02512053_2583.JPEG","n02676566/n02676566_752.JPEG","n03272010/n03272010_6177.JPEG","n03928116/n03928116_14262.JPEG","n03405725/n03405725_36132.JPEG","n03051540/n03051540_10642.JPEG","n01503061/n01503061_3115.JPEG","n03928116/n03928116_8316.JPEG","n01503061/n01503061_3442.JPEG","n13104059/n13104059_3144.JPEG","n03405725/n03405725_21781.JPEG","n03272010/n03272010_274.JPEG","n03405725/n03405725_18105.JPEG","n01503061/n01503061_9938.JPEG","n03249569/n03249569_18813.JPEG","n01503061/n01503061_7526.JPEG","n03051540/n03051540_51061.JPEG","n13104059/n13104059_12631.JPEG","n03405725/n03405725_13521.JPEG","n01503061/n01503061_17552.JPEG","n01503061/n01503061_5783.JPEG"],"trial_ID":21,"responses":["n02676566/n02676566_752.JPEG","n03272010/n03272010_6177.JPEG","n03272010/n03272010_274.JPEG"],"rt":10186},{"internal_node_id":"0.0-8.0","time_elapsed":125633,"trial_index":8,"trial_type":"generalization","sample_node":"n02536456","trial_type2":"10_ex","condition":"subordinate_condition","nonsense_word":"aftion","train_images":["n02536456/n02536456_910.JPEG","n02536456/n02536456_6396.JPEG","n02536456/n02536456_1692.JPEG","n02536456/n02536456_4420.JPEG","n02536456/n02536456_21.JPEG","n02536456/n02536456_6207.JPEG","n02536456/n02536456_10514.JPEG","n02536456/n02536456_11599.JPEG","n02536456/n02536456_3043.JPEG","n02536456/n02536456_3505.JPEG"],"test_images":["n03405725/n03405725_8256.JPEG","n02535537/n02535537_5119.JPEG","n13134947/n13134947_3185.JPEG","n04524313/n04524313_4873.JPEG","n02537085/n02537085_5623.JPEG","n03405725/n03405725_28677.JPEG","n04524313/n04524313_16704.JPEG","n13134947/n13134947_12631.JPEG","n02536456/n02536456_2826.JPEG","n04451818/n04451818_11373.JPEG","n03405725/n03405725_8077.JPEG","n02535537/n02535537_11698.JPEG","n03051540/n03051540_4811.JPEG","n02537085/n02537085_9346.JPEG","n02586543/n02586543_4402.JPEG","n03800933/n03800933_17337.JPEG","n02536456/n02536456_6354.JPEG","n04524313/n04524313_4260.JPEG","n13134947/n13134947_13744.JPEG","n04524313/n04524313_179.JPEG","n04524313/n04524313_9693.JPEG","n02537085/n02537085_7462.JPEG","n03800933/n03800933_525.JPEG","n13134947/n13134947_3261.JPEG"],"trial_ID":21,"responses":["n02535537/n02535537_5119.JPEG","n02537085/n02537085_9346.JPEG","n02586543/n02586543_4402.JPEG","n02536456/n02536456_6354.JPEG"],"rt":11929},{"internal_node_id":"0.0-9.0","time_elapsed":136430,"trial_index":9,"trial_type":"generalization","sample_node":"n02783035","trial_type2":"10_ex","condition":"subordinate_condition","nonsense_word":"aftion","train_images":["n02783035/n02783035_1239.JPEG","n02783035/n02783035_1246.JPEG","n02783035/n02783035_1591.JPEG","n02783035/n02783035_90.JPEG","n02783035/n02783035_1776.JPEG","n02783035/n02783035_174.JPEG","n02783035/n02783035_1280.JPEG","n02783035/n02783035_848.JPEG","n02783035/n02783035_375.JPEG","n02783035/n02783035_265.JPEG"],"test_images":["n13104059/n13104059_7303.JPEG","n02783035/n02783035_551.JPEG","n03051540/n03051540_8360.JPEG","n02512053/n02512053_4648.JPEG","n03051540/n03051540_14032.JPEG","n04524313/n04524313_3024.JPEG","n04524313/n04524313_2689.JPEG","n01503061/n01503061_191.JPEG","n02783035/n02783035_1024.JPEG","n04140064/n04140064_7797.JPEG","n01503061/n01503061_9149.JPEG","n04524313/n04524313_10275.JPEG","n03800933/n03800933_6669.JPEG","n04154565/n04154565_977.JPEG","n01503061/n01503061_18208.JPEG","n04154565/n04154565_12390.JPEG","n02512053/n02512053_2821.JPEG","n02966545/n02966545_4610.JPEG","n02966545/n02966545_2226.JPEG","n04140064/n04140064_9304.JPEG","n04524313/n04524313_1701.JPEG","n04524313/n04524313_3273.JPEG","n04524313/n04524313_1172.JPEG","n03800933/n03800933_4484.JPEG"],"trial_ID":21,"responses":["n02783035/n02783035_551.JPEG","n02783035/n02783035_1024.JPEG","n02966545/n02966545_4610.JPEG"],"rt":9701}],"__v":0}
{"_id":{"$oid":"591baa00a4d39700047059a8"},"data":[{"internal_node_id":"0.0-2.0","time_elapsed":28351,"trial_index":2,"trial_type":"generalization","sample_node":"n02690373","trial_type2":"5_ex","condition":"subordinate_condition","nonsense_word":"stuyer","train_images":["n02690373/n02690373_5056.JPEG","n02690373/n02690373_7473.JPEG","n02690373/n02690373_5619.JPEG","n02690373/n02690373_2746.JPEG","n02690373/n02690373_7438.JPEG"],"test_images":["n13134947/n13134947_2119.JPEG","n02690373/n02690373_5845.JPEG","n03335030/n03335030_4935.JPEG","n04490091/n04490091_13312.JPEG","n03800933/n03800933_7469.JPEG","n03405725/n03405725_18863.JPEG","n02690373/n02690373_1796.JPEG","n03405725/n03405725_3198.JPEG","n02958343/n02958343_10092.JPEG","n13104059/n13104059_8861.JPEG","n04451818/n04451818_23231.JPEG","n01503061/n01503061_5741.JPEG","n13134947/n13134947_1958.JPEG","n04490091/n04490091_8878.JPEG","n04490091/n04490091_4468.JPEG","n03800933/n03800933_9914.JPEG","n03335030/n03335030_34072.JPEG","n03800933/n03800933_20806.JPEG","n03800933/n03800933_9148.JPEG","n01503061/n01503061_3828.JPEG","n01503061/n01503061_8034.JPEG","n13134947/n13134947_4113.JPEG","n13134947/n13134947_4398.JPEG","n04451818/n04451818_13828.JPEG"],"trial_ID":36,"responses":["n02690373/n02690373_5845.JPEG","n03335030/n03335030_4935.JPEG","n02690373/n02690373_1796.JPEG"],"rt":22371},{"internal_node_id":"0.0-3.0","time_elapsed":46166,"trial_index":3,"trial_type":"generalization","sample_node":"n04489008","trial_type2":"5_ex","condition":"basic-level_condition","nonsense_word":"stuyer","train_images":["n04489008/n04489008_19205.JPEG","n04370288/n04370288_11737.JPEG","n04489008/n04489008_14467.JPEG","n04489008/n04489008_19965.JPEG","n04489008/n04489008_14830.JPEG"],"test_images":["n04254777/n04254777_2170.JPEG","n04524313/n04524313_4370.JPEG","n03594734/n03594734_42955.JPEG","n02512053/n02512053_5513.JPEG","n03800933/n03800933_9101.JPEG","n04197391/n04197391_2539.JPEG","n13104059/n13104059_5430.JPEG","n03405725/n03405725_13560.JPEG","n04451818/n04451818_14765.JPEG","n03405725/n03405725_1055.JPEG","n04370288/n04370288_11262.JPEG","n02512053/n02512053_5553.JPEG","n13134947/n13134947_2405.JPEG","n02512053/n02512053_7319.JPEG","n04197391/n04197391_7302.JPEG","n03800933/n03800933_27639.JPEG","n03594734/n03594734_1604.JPEG","n04370288/n04370288_2105.JPEG","n04197391/n04197391_7741.JPEG","n02512053/n02512053_2821.JPEG","n03800933/n03800933_22954.JPEG","n03800933/n03800933_24073.JPEG","n03800933/n03800933_5501.JPEG","n03800933/n03800933_987.JPEG"],"trial_ID":36,"responses":["n03594734/n03594734_42955.JPEG","n04197391/n04197391_7302.JPEG","n03594734/n03594734_1604.JPEG","n04370288/n04370288_2105.JPEG"],"rt":16774},{"internal_node_id":"0.0-4.0","time_elapsed":55709,"trial_index":4,"trial_type":"generalization","sample_node":"n01536644","trial_type2":"5_ex","condition":"subordinate_condition","nonsense_word":"stuyer","train_images":["n01536644/n01536644_700.JPEG","n01536644/n01536644_6710.JPEG","n01536644/n01536644_9189.JPEG","n01536644/n01536644_9542.JPEG","n01536644/n01536644_6837.JPEG"],"test_images":["n04524313/n04524313_9675.JPEG","n13104059/n13104059_4929.JPEG","n01536644/n01536644_8405.JPEG","n04524313/n04524313_951.JPEG","n03051540/n03051540_8878.JPEG","n01613294/n01613294_9776.JPEG","n04524313/n04524313_21978.JPEG","n04451818/n04451818_22131.JPEG","n04524313/n04524313_1342.JPEG","n03405725/n03405725_134.JPEG","n01536186/n01536186_2743.JPEG","n03051540/n03051540_20248.JPEG","n01621127/n01621127_1258.JPEG","n13104059/n13104059_6744.JPEG","n13104059/n13104059_8248.JPEG","n01613294/n01613294_2768.JPEG","n03051540/n03051540_6985.JPEG","n01536644/n01536644_6191.JPEG","n04524313/n04524313_8214.JPEG","n03405725/n03405725_27120.JPEG","n01613294/n01613294_2289.JPEG","n03051540/n03051540_44361.JPEG","n02512053/n02512053_7990.JPEG","n01536186/n01536186_1913.JPEG"],"trial_ID":36,"responses":["n01613294/n01613294_9776.JPEG","n01536186/n01536186_2743.JPEG","n01613294/n01613294_2768.JPEG","n01613294/n01613294_2289.JPEG"],"rt":8512},{"internal_node_id":"0.0-5.0","time_elapsed":66361,"trial_index":5,"trial_type":"generalization","sample_node":"n04331277","trial_type2":"10_ex","condition":"subordinate_condition","nonsense_word":"stuyer","train_images":["n04331277/n04331277_4096.JPEG","n04331277/n04331277_796.JPEG","n04331277/n04331277_8453.JPEG","n04331277/n04331277_3469.JPEG","n04331277/n04331277_8009.JPEG","n04331277/n04331277_48.JPEG","n04331277/n04331277_1033.JPEG","n04331277/n04331277_976.JPEG","n04331277/n04331277_25.JPEG","n04331277/n04331277_9078.JPEG"],"test_images":["n03051540/n03051540_9823.JPEG","n04451818/n04451818_19369.JPEG","n02512053/n02512053_8584.JPEG","n04331277/n04331277_6148.JPEG","n03051540/n03051540_53260.JPEG","n04379243/n04379243_13010.JPEG","n04451818/n04451818_6348.JPEG","n03800933/n03800933_12810.JPEG","n02738535/n02738535_14728.JPEG","n01503061/n01503061_5182.JPEG","n02512053/n02512053_3574.JPEG","n04379243/n04379243_6075.JPEG","n04379243/n04379243_13890.JPEG","n02738535/n02738535_21317.JPEG","n04379243/n04379243_29906.JPEG","n03051540/n03051540_17572.JPEG","n04451818/n04451818_27262.JPEG","n03051540/n03051540_19997.JPEG","n01503061/n01503061_4572.JPEG","n13104059/n13104059_8630.JPEG","n04451818/n04451818_11354.JPEG","n04331277/n04331277_1437.JPEG","n01503061/n01503061_11028.JPEG","n04451818/n04451818_18686.JPEG"],"trial_ID":36,"responses":["n04331277/n04331277_6148.JPEG","n04379243/n04379243_13890.JPEG","n02738535/n02738535_21317.JPEG","n04331277/n04331277_1437.JPEG"],"rt":9622},{"internal_node_id":"0.0-6.0","time_elapsed":80987,"trial_index":6,"trial_type":"generalization","sample_node":"n13134947","trial_type2":"10_ex","condition":"superordinate_condition","nonsense_word":"stuyer","train_images":["n13134947/n13134947_13916.JPEG","n13134947/n13134947_3038.JPEG","n13134947/n13134947_4979.JPEG","n07740954/n07740954_18751.JPEG","n13134947/n13134947_2414.JPEG","n13134947/n13134947_6000.JPEG","n13134947/n13134947_3931.JPEG","n13134947/n13134947_3303.JPEG","n13134947/n13134947_2486.JPEG","n13134947/n13134947_5184.JPEG"],"test_images":["n01503061/n01503061_9907.JPEG","n01503061/n01503061_13700.JPEG","n01503061/n01503061_8848.JPEG","n07758680/n07758680_22072.JPEG","n07740220/n07740220_7156.JPEG","n07744246/n07744246_3333.JPEG","n13104059/n13104059_6408.JPEG","n07740954/n07740954_14534.JPEG","n07758680/n07758680_16063.JPEG","n01503061/n01503061_9869.JPEG","n13104059/n13104059_7564.JPEG","n07740954/n07740954_6244.JPEG","n01503061/n01503061_15344.JPEG","n07740220/n07740220_4856.JPEG","n02512053/n02512053_2095.JPEG","n04451818/n04451818_16164.JPEG","n02512053/n02512053_2160.JPEG","n04451818/n04451818_8795.JPEG","n03405725/n03405725_31773.JPEG","n13104059/n13104059_10843.JPEG","n04451818/n04451818_10191.JPEG","n04524313/n04524313_2147.JPEG","n03405725/n03405725_4096.JPEG","n07744246/n07744246_4555.JPEG"],"trial_ID":36,"responses":["n07740220/n07740220_7156.JPEG","n07744246/n07744246_3333.JPEG","n07740954/n07740954_14534.JPEG","n07740954/n07740954_6244.JPEG","n07744246/n07744246_4555.JPEG"],"rt":13589},{"internal_node_id":"0.0-7.0","time_elapsed":92983,"trial_index":7,"trial_type":"generalization","sample_node":"n03800933","trial_type2":"3_ex","condition":"superordinate_condition","nonsense_word":"stuyer","train_images":["n03800933/n03800933_16992.JPEG","n03800933/n03800933_6834.JPEG","n03272010/n03272010_3202.JPEG"],"test_images":["n03405725/n03405725_13521.JPEG","n03928116/n03928116_8316.JPEG","n01503061/n01503061_7526.JPEG","n01503061/n01503061_9938.JPEG","n03051540/n03051540_10642.JPEG","n03249569/n03249569_18813.JPEG","n03051540/n03051540_51061.JPEG","n03272010/n03272010_274.JPEG","n03405725/n03405725_18105.JPEG","n01503061/n01503061_3442.JPEG","n01503061/n01503061_239.JPEG","n01503061/n01503061_3115.JPEG","n03928116/n03928116_14262.JPEG","n02512053/n02512053_2583.JPEG","n01503061/n01503061_5783.JPEG","n03405725/n03405725_21781.JPEG","n02676566/n02676566_9566.JPEG","n03405725/n03405725_36132.JPEG","n03249569/n03249569_35810.JPEG","n01503061/n01503061_17552.JPEG","n03272010/n03272010_6177.JPEG","n13104059/n13104059_12631.JPEG","n02676566/n02676566_752.JPEG","n13104059/n13104059_3144.JPEG"],"trial_ID":36,"responses":["n03272010/n03272010_274.JPEG","n03928116/n03928116_14262.JPEG","n03272010/n03272010_6177.JPEG","n02676566/n02676566_752.JPEG"],"rt":10962},{"internal_node_id":"0.0-8.0","time_elapsed":103889,"trial_index":8,"trial_type":"generalization","sample_node":"n02536456","trial_type2":"3_ex","condition":"subordinate_condition","nonsense_word":"stuyer","train_images":["n02536456/n02536456_11599.JPEG","n02536456/n02536456_910.JPEG","n02536456/n02536456_4420.JPEG"],"test_images":["n04524313/n04524313_4260.JPEG","n04524313/n04524313_9693.JPEG","n02537085/n02537085_7462.JPEG","n13134947/n13134947_13744.JPEG","n04524313/n04524313_4873.JPEG","n02536456/n02536456_6354.JPEG","n02535537/n02535537_11698.JPEG","n03405725/n03405725_8256.JPEG","n03800933/n03800933_525.JPEG","n04451818/n04451818_11373.JPEG","n02535537/n02535537_5119.JPEG","n02536456/n02536456_2826.JPEG","n04524313/n04524313_16704.JPEG","n02537085/n02537085_9346.JPEG","n03051540/n03051540_4811.JPEG","n13134947/n13134947_3261.JPEG","n02537085/n02537085_5623.JPEG","n13134947/n13134947_3185.JPEG","n13134947/n13134947_12631.JPEG","n03800933/n03800933_17337.JPEG","n03405725/n03405725_8077.JPEG","n02586543/n02586543_4402.JPEG","n04524313/n04524313_179.JPEG","n03405725/n03405725_28677.JPEG"],"trial_ID":36,"responses":["n02536456/n02536456_6354.JPEG","n02535537/n02535537_11698.JPEG","n02535537/n02535537_5119.JPEG","n02536456/n02536456_2826.JPEG","n02586543/n02586543_4402.JPEG"],"rt":9866},{"internal_node_id":"0.0-9.0","time_elapsed":112319,"trial_index":9,"trial_type":"generalization","sample_node":"n02966545","trial_type2":"3_ex","condition":"subordinate_condition","nonsense_word":"stuyer","train_images":["n02966545/n02966545_5260.JPEG","n02966545/n02966545_524.JPEG","n02966545/n02966545_989.JPEG"],"test_images":["n03800933/n03800933_6669.JPEG","n04524313/n04524313_3024.JPEG","n02966545/n02966545_4281.JPEG","n04154565/n04154565_12390.JPEG","n02512053/n02512053_2821.JPEG","n04524313/n04524313_10275.JPEG","n01503061/n01503061_191.JPEG","n02966545/n02966545_6411.JPEG","n04524313/n04524313_3273.JPEG","n02783035/n02783035_186.JPEG","n04524313/n04524313_1172.JPEG","n01503061/n01503061_18208.JPEG","n03800933/n03800933_4484.JPEG","n03051540/n03051540_14032.JPEG","n04524313/n04524313_2689.JPEG","n04140064/n04140064_9304.JPEG","n13104059/n13104059_7303.JPEG","n03051540/n03051540_8360.JPEG","n04154565/n04154565_977.JPEG","n02512053/n02512053_4648.JPEG","n04140064/n04140064_7797.JPEG","n04524313/n04524313_1701.JPEG","n01503061/n01503061_9149.JPEG","n02783035/n02783035_1356.JPEG"],"trial_ID":36,"responses":["n02966545/n02966545_4281.JPEG","n04140064/n04140064_9304.JPEG","n04154565/n04154565_977.JPEG"],"rt":7400}],"__v":0}
{"_id":{"$oid":"591baa06a4d39700047059a9"},"data":[{"internal_node_id":"0.0-2.0","time_elapsed":30020,"trial_index":2,"trial_type":"generalization","sample_node":"n04467665","trial_type2":"3_ex","condition":"subordinate_condition","nonsense_word":"abroll","train_images":["n04467665/n04467665_21969.JPEG","n04467665/n04467665_33012.JPEG","n04467665/n04467665_11888.JPEG"],"test_images":["n13134947/n13134947_4398.JPEG","n13134947/n13134947_1958.JPEG","n13134947/n13134947_2119.JPEG","n01503061/n01503061_8034.JPEG","n03405725/n03405725_3198.JPEG","n03405725/n03405725_18863.JPEG","n02958343/n02958343_13818.JPEG","n03800933/n03800933_9914.JPEG","n02958343/n02958343_81808.JPEG","n04451818/n04451818_23231.JPEG","n13104059/n13104059_8861.JPEG","n01503061/n01503061_3828.JPEG","n02958343/n02958343_11614.JPEG","n02958343/n02958343_10506.JPEG","n13134947/n13134947_4113.JPEG","n03800933/n03800933_20806.JPEG","n03800933/n03800933_7469.JPEG","n03930630/n03930630_6833.JPEG","n04451818/n04451818_13828.JPEG","n04467665/n04467665_30634.JPEG","n04467665/n04467665_25885.JPEG","n03800933/n03800933_9148.JPEG","n01503061/n01503061_5741.JPEG","n03930630/n03930630_12415.JPEG"],"trial_ID":37,"responses":["n04467665/n04467665_25885.JPEG"],"rt":25327},{"internal_node_id":"0.0-3.0","time_elapsed":42818,"trial_index":3,"trial_type":"generalization","sample_node":"n03978966","trial_type2":"1_ex","condition":"subordinate_condition","nonsense_word":"abroll","train_images":["n03978966/n03978966_1603.JPEG"],"test_images":["n03238879/n03238879_14233.JPEG","n04254777/n04254777_16509.JPEG","n03800933/n03800933_987.JPEG","n03405725/n03405725_13560.JPEG","n03800933/n03800933_27639.JPEG","n02512053/n02512053_2821.JPEG","n04524313/n04524313_4370.JPEG","n03800933/n03800933_24073.JPEG","n13134947/n13134947_2405.JPEG","n04451818/n04451818_14765.JPEG","n02512053/n02512053_5513.JPEG","n03978966/n03978966_16325.JPEG","n02512053/n02512053_5553.JPEG","n04254777/n04254777_18133.JPEG","n03800933/n03800933_22954.JPEG","n03800933/n03800933_5501.JPEG","n03405725/n03405725_1055.JPEG","n04254777/n04254777_17355.JPEG","n03238879/n03238879_12359.JPEG","n03800933/n03800933_9101.JPEG","n03978966/n03978966_7267.JPEG","n13104059/n13104059_5430.JPEG","n04254777/n04254777_16757.JPEG","n02512053/n02512053_7319.JPEG"],"trial_ID":37,"responses":["n03978966/n03978966_16325.JPEG","n03978966/n03978966_7267.JPEG"],"rt":11775},{"internal_node_id":"0.0-4.0","time_elapsed":58658,"trial_index":4,"trial_type":"generalization","sample_node":"n01539573","trial_type2":"10_ex","condition":"basic-level_condition","nonsense_word":"abroll","train_images":["n01539573/n01539573_6945.JPEG","n01539573/n01539573_1527.JPEG","n01539573/n01539573_11293.JPEG","n01539573/n01539573_8484.JPEG","n01536186/n01536186_1831.JPEG","n01539573/n01539573_482.JPEG","n01539573/n01539573_10611.JPEG","n01539573/n01539573_4002.JPEG","n01539573/n01539573_5604.JPEG","n01539573/n01539573_916.JPEG"],"test_images":["n04524313/n04524313_8214.JPEG","n02512053/n02512053_7990.JPEG","n01536186/n01536186_6909.JPEG","n03405725/n03405725_134.JPEG","n03051540/n03051540_44361.JPEG","n01536186/n01536186_2600.JPEG","n03051540/n03051540_20248.JPEG","n13104059/n13104059_8248.JPEG","n03051540/n03051540_6985.JPEG","n01536644/n01536644_2048.JPEG","n01621127/n01621127_1258.JPEG","n04524313/n04524313_9675.JPEG","n04524313/n04524313_21978.JPEG","n01613294/n01613294_2289.JPEG","n03405725/n03405725_27120.JPEG","n01613294/n01613294_9776.JPEG","n04451818/n04451818_22131.JPEG","n01613294/n01613294_2768.JPEG","n04524313/n04524313_951.JPEG","n01536644/n01536644_1537.JPEG","n13104059/n13104059_4929.JPEG","n13104059/n13104059_6744.JPEG","n03051540/n03051540_8878.JPEG","n04524313/n04524313_1342.JPEG"],"trial_ID":37,"responses":["n01536186/n01536186_6909.JPEG","n01536644/n01536644_2048.JPEG","n01621127/n01621127_1258.JPEG","n01613294/n01613294_2289.JPEG","n01613294/n01613294_9776.JPEG","n01613294/n01613294_2768.JPEG","n01536644/n01536644_1537.JPEG"],"rt":14829},{"internal_node_id":"0.0-5.0","time_elapsed":72875,"trial_index":5,"trial_type":"generalization","sample_node":"n03405725","trial_type2":"3_ex","condition":"superordinate_condition","nonsense_word":"abroll","train_images":["n03405725/n03405725_16518.JPEG","n04380533/n04380533_2488.JPEG","n03405725/n03405725_34361.JPEG"],"test_images":["n03051540/n03051540_9823.JPEG","n04451818/n04451818_6348.JPEG","n03800933/n03800933_12810.JPEG","n03001627/n03001627_1504.JPEG","n03051540/n03051540_19997.JPEG","n04379243/n04379243_7123.JPEG","n03051540/n03051540_17572.JPEG","n04379243/n04379243_4708.JPEG","n03367059/n03367059_1238.JPEG","n04380533/n04380533_3864.JPEG","n04451818/n04451818_18686.JPEG","n04451818/n04451818_27262.JPEG","n04451818/n04451818_11354.JPEG","n03051540/n03051540_53260.JPEG","n13104059/n13104059_8630.JPEG","n01503061/n01503061_11028.JPEG","n02512053/n02512053_3574.JPEG","n03001627/n03001627_9786.JPEG","n01503061/n01503061_4572.JPEG","n01503061/n01503061_5182.JPEG","n03367059/n03367059_9485.JPEG","n04451818/n04451818_19369.JPEG","n02512053/n02512053_8584.JPEG","n04380533/n04380533_1490.JPEG"],"trial_ID":37,"responses":["n03001627/n03001627_1504.JPEG","n04379243/n04379243_7123.JPEG","n04379243/n04379243_4708.JPEG","n03001627/n03001627_9786.JPEG","n03367059/n03367059_9485.JPEG"],"rt":13209},{"internal_node_id":"0.0-6.0","time_elapsed":83499,"trial_index":6,"trial_type":"generalization","sample_node":"n07739125","trial_type2":"10_ex","condition":"basic-level_condition","nonsense_word":"abroll","train_images":["n07740954/n07740954_18751.JPEG","n07739125/n07739125_11828.JPEG","n07739125/n07739125_3204.JPEG","n07739125/n07739125_2949.JPEG","n07739125/n07739125_4184.JPEG","n07739125/n07739125_12.JPEG","n07739125/n07739125_7294.JPEG","n07739125/n07739125_3392.JPEG","n07739125/n07739125_231.JPEG","n07739125/n07739125_11547.JPEG"],"test_images":["n04451818/n04451818_10191.JPEG","n04524313/n04524313_2147.JPEG","n01503061/n01503061_15344.JPEG","n07740220/n07740220_4856.JPEG","n01503061/n01503061_9869.JPEG","n13104059/n13104059_7564.JPEG","n07758680/n07758680_22072.JPEG","n02512053/n02512053_2095.JPEG","n07740954/n07740954_14534.JPEG","n02512053/n02512053_2160.JPEG","n04451818/n04451818_8795.JPEG","n13104059/n13104059_10843.JPEG","n07740220/n07740220_7156.JPEG","n07740954/n07740954_6244.JPEG","n01503061/n01503061_8848.JPEG","n03405725/n03405725_4096.JPEG","n07758680/n07758680_16063.JPEG","n13104059/n13104059_6408.JPEG","n01503061/n01503061_9907.JPEG","n07744246/n07744246_3333.JPEG","n03405725/n03405725_31773.JPEG","n07744246/n07744246_4555.JPEG","n01503061/n01503061_13700.JPEG","n04451818/n04451818_16164.JPEG"],"trial_ID":37,"responses":["n07740220/n07740220_4856.JPEG","n07740954/n07740954_14534.JPEG","n07740220/n07740220_7156.JPEG","n07740954/n07740954_6244.JPEG","n07744246/n07744246_3333.JPEG","n07744246/n07744246_4555.JPEG"],"rt":9616},{"internal_node_id":"0.0-7.0","time_elapsed":96290,"trial_index":7,"trial_type":"generalization","sample_node":"n03452741","trial_type2":"1_ex","condition":"subordinate_condition","nonsense_word":"abroll","train_images":["n03452741/n03452741_290.JPEG"],"test_images":["n03405725/n03405725_18105.JPEG","n03452741/n03452741_2911.JPEG","n01503061/n01503061_9938.JPEG","n03051540/n03051540_10642.JPEG","n03467517/n03467517_5038.JPEG","n01503061/n01503061_239.JPEG","n03405725/n03405725_13521.JPEG","n03452741/n03452741_16378.JPEG","n01503061/n01503061_5783.JPEG","n13104059/n13104059_3144.JPEG","n03467517/n03467517_19609.JPEG","n03467517/n03467517_4144.JPEG","n01503061/n01503061_3442.JPEG","n02512053/n02512053_2583.JPEG","n03405725/n03405725_21781.JPEG","n01503061/n01503061_3115.JPEG","n01503061/n01503061_17552.JPEG","n03405725/n03405725_36132.JPEG","n13104059/n13104059_12631.JPEG","n01503061/n01503061_7526.JPEG","n03249569/n03249569_20874.JPEG","n04515003/n04515003_518.JPEG","n04515003/n04515003_255.JPEG","n03051540/n03051540_51061.JPEG"],"trial_ID":37,"responses":["n03452741/n03452741_2911.JPEG","n03452741/n03452741_16378.JPEG","n04515003/n04515003_518.JPEG","n04515003/n04515003_255.JPEG"],"rt":11780},{"internal_node_id":"0.0-8.0","time_elapsed":109010,"trial_index":8,"trial_type":"generalization","sample_node":"n02537525","trial_type2":"5_ex","condition":"subordinate_condition","nonsense_word":"abroll","train_images":["n02537525/n02537525_690.JPEG","n02537525/n02537525_3920.JPEG","n02537525/n02537525_4144.JPEG","n02537525/n02537525_106.JPEG","n02537525/n02537525_360.JPEG"],"test_images":["n13134947/n13134947_3185.JPEG","n04451818/n04451818_11373.JPEG","n13134947/n13134947_3261.JPEG","n03800933/n03800933_525.JPEG","n04524313/n04524313_4260.JPEG","n02586543/n02586543_12207.JPEG","n03405725/n03405725_8256.JPEG","n02538010/n02538010_6057.JPEG","n03405725/n03405725_28677.JPEG","n04524313/n04524313_4873.JPEG","n02586543/n02586543_5247.JPEG","n13134947/n13134947_12631.JPEG","n03405725/n03405725_8077.JPEG","n02538010/n02538010_5173.JPEG","n03051540/n03051540_4811.JPEG","n02586543/n02586543_5142.JPEG","n04524313/n04524313_16704.JPEG","n02537525/n02537525_4730.JPEG","n04524313/n04524313_9693.JPEG","n02537525/n02537525_1129.JPEG","n03800933/n03800933_17337.JPEG","n02586543/n02586543_4032.JPEG","n13134947/n13134947_13744.JPEG","n04524313/n04524313_179.JPEG"],"trial_ID":37,"responses":["n02586543/n02586543_12207.JPEG","n02538010/n02538010_6057.JPEG","n02586543/n02586543_5247.JPEG","n02538010/n02538010_5173.JPEG","n02586543/n02586543_5142.JPEG","n02537525/n02537525_1129.JPEG","n02586543/n02586543_4032.JPEG"],"rt":11710},{"internal_node_id":"0.0-9.0","time_elapsed":118732,"trial_index":9,"trial_type":"generalization","sample_node":"n03481172","trial_type2":"5_ex","condition":"basic-level_condition","nonsense_word":"abroll","train_images":["n03481172/n03481172_16519.JPEG","n03481172/n03481172_11793.JPEG","n02783035/n02783035_174.JPEG","n03481172/n03481172_24922.JPEG","n03481172/n03481172_11602.JPEG"],"test_images":["n04524313/n04524313_2689.JPEG","n02966545/n02966545_2226.JPEG","n04524313/n04524313_1172.JPEG","n02783035/n02783035_551.JPEG","n04140064/n04140064_9304.JPEG","n02783035/n02783035_1024.JPEG","n13104059/n13104059_7303.JPEG","n01503061/n01503061_9149.JPEG","n04524313/n04524313_3273.JPEG","n01503061/n01503061_18208.JPEG","n03051540/n03051540_8360.JPEG","n04140064/n04140064_7797.JPEG","n02966545/n02966545_4610.JPEG","n04524313/n04524313_10275.JPEG","n03051540/n03051540_14032.JPEG","n04524313/n04524313_1701.JPEG","n01503061/n01503061_191.JPEG","n04154565/n04154565_12390.JPEG","n04524313/n04524313_3024.JPEG","n03800933/n03800933_6669.JPEG","n02512053/n02512053_4648.JPEG","n04154565/n04154565_977.JPEG","n03800933/n03800933_4484.JPEG","n02512053/n02512053_2821.JPEG"],"trial_ID":37,"responses":["n02783035/n02783035_551.JPEG","n02783035/n02783035_1024.JPEG","n02966545/n02966545_4610.JPEG"],"rt":8702}],"__v":0}
{"_id":{"$oid":"591baa10a4d39700047059aa"},"data":[{"internal_node_id":"0.0-2.0","time_elapsed":26890,"trial_index":2,"trial_type":"generalization","sample_node":"n03930630","trial_type2":"1_ex","condition":"subordinate_condition","nonsense_word":"canney","train_images":["n03930630/n03930630_4792.JPEG"],"test_images":["n03930630/n03930630_18526.JPEG","n03800933/n03800933_9914.JPEG","n01503061/n01503061_5741.JPEG","n02958343/n02958343_11614.JPEG","n03405725/n03405725_3198.JPEG","n13134947/n13134947_4398.JPEG","n03800933/n03800933_7469.JPEG","n13134947/n13134947_4113.JPEG","n03930630/n03930630_231.JPEG","n04467665/n04467665_34774.JPEG","n02958343/n02958343_13818.JPEG","n02958343/n02958343_10506.JPEG","n03800933/n03800933_20806.JPEG","n04451818/n04451818_13828.JPEG","n03800933/n03800933_9148.JPEG","n13134947/n13134947_2119.JPEG","n02958343/n02958343_81808.JPEG","n13134947/n13134947_1958.JPEG","n04451818/n04451818_23231.JPEG","n04467665/n04467665_5133.JPEG","n01503061/n01503061_3828.JPEG","n01503061/n01503061_8034.JPEG","n03405725/n03405725_18863.JPEG","n13104059/n13104059_8861.JPEG"],"trial_ID":27,"responses":["n03930630/n03930630_18526.JPEG","n03930630/n03930630_231.JPEG","n02958343/n02958343_10506.JPEG","n02958343/n02958343_81808.JPEG"],"rt":19774},{"internal_node_id":"0.0-3.0","time_elapsed":47225,"trial_index":3,"trial_type":"generalization","sample_node":"n04370288","trial_type2":"1_ex","condition":"subordinate_condition","nonsense_word":"canney","train_images":["n04370288/n04370288_11737.JPEG"],"test_images":["n04197391/n04197391_7741.JPEG","n03800933/n03800933_27639.JPEG","n03405725/n03405725_1055.JPEG","n04370288/n04370288_11262.JPEG","n13134947/n13134947_2405.JPEG","n03594734/n03594734_1604.JPEG","n02512053/n02512053_2821.JPEG","n04197391/n04197391_2539.JPEG","n04370288/n04370288_2105.JPEG","n03405725/n03405725_13560.JPEG","n03800933/n03800933_987.JPEG","n04254777/n04254777_2170.JPEG","n04197391/n04197391_7302.JPEG","n03800933/n03800933_9101.JPEG","n03800933/n03800933_5501.JPEG","n04524313/n04524313_4370.JPEG","n04451818/n04451818_14765.JPEG","n02512053/n02512053_5553.JPEG","n13104059/n13104059_5430.JPEG","n03800933/n03800933_22954.JPEG","n03800933/n03800933_24073.JPEG","n02512053/n02512053_5513.JPEG","n03594734/n03594734_42955.JPEG","n02512053/n02512053_7319.JPEG"],"trial_ID":27,"responses":["n03800933/n03800933_27639.JPEG","n04197391/n04197391_7302.JPEG","n03800933/n03800933_9101.JPEG"],"rt":19320},{"internal_node_id":"0.0-4.0","time_elapsed":61975,"trial_index":4,"trial_type":"generalization","sample_node":"n01625562","trial_type2":"3_ex","condition":"subordinate_condition","nonsense_word":"canney","train_images":["n01625562/n01625562_7670.JPEG","n01625562/n01625562_3371.JPEG","n01625562/n01625562_2473.JPEG"],"test_images":["n01613294/n01613294_7699.JPEG","n03405725/n03405725_134.JPEG","n01625562/n01625562_9987.JPEG","n03051540/n03051540_20248.JPEG","n03405725/n03405725_27120.JPEG","n04524313/n04524313_951.JPEG","n13104059/n13104059_6744.JPEG","n03051540/n03051540_8878.JPEG","n01613294/n01613294_10966.JPEG","n04524313/n04524313_8214.JPEG","n13104059/n13104059_8248.JPEG","n01622779/n01622779_4334.JPEG","n03051540/n03051540_6985.JPEG","n04524313/n04524313_9675.JPEG","n04524313/n04524313_21978.JPEG","n01539573/n01539573_3505.JPEG","n01622779/n01622779_6713.JPEG","n01625562/n01625562_7614.JPEG","n13104059/n13104059_4929.JPEG","n04524313/n04524313_1342.JPEG","n03051540/n03051540_44361.JPEG","n04451818/n04451818_22131.JPEG","n01613294/n01613294_4104.JPEG","n02512053/n02512053_7990.JPEG"],"trial_ID":27,"responses":["n01625562/n01625562_9987.JPEG","n01622779/n01622779_4334.JPEG","n01625562/n01625562_7614.JPEG"],"rt":13732},{"internal_node_id":"0.0-5.0","time_elapsed":78268,"trial_index":5,"trial_type":"generalization","sample_node":"n04380533","trial_type2":"5_ex","condition":"subordinate_condition","nonsense_word":"canney","train_images":["n04380533/n04380533_2488.JPEG","n04380533/n04380533_3893.JPEG","n04380533/n04380533_3442.JPEG","n04380533/n04380533_5710.JPEG","n04380533/n04380533_1267.JPEG"],"test_images":["n13104059/n13104059_8630.JPEG","n04451818/n04451818_18686.JPEG","n04380533/n04380533_3864.JPEG","n03800933/n03800933_12810.JPEG","n03051540/n03051540_9823.JPEG","n03001627/n03001627_1504.JPEG","n04379243/n04379243_7123.JPEG","n02512053/n02512053_8584.JPEG","n03001627/n03001627_9786.JPEG","n04451818/n04451818_27262.JPEG","n03051540/n03051540_53260.JPEG","n01503061/n01503061_5182.JPEG","n04451818/n04451818_19369.JPEG","n02512053/n02512053_3574.JPEG","n03051540/n03051540_17572.JPEG","n04451818/n04451818_6348.JPEG","n03367059/n03367059_1238.JPEG","n01503061/n01503061_11028.JPEG","n01503061/n01503061_4572.JPEG","n04379243/n04379243_4708.JPEG","n03051540/n03051540_19997.JPEG","n03367059/n03367059_9485.JPEG","n04451818/n04451818_11354.JPEG","n04380533/n04380533_1490.JPEG"],"trial_ID":27,"responses":["n04380533/n04380533_3864.JPEG","n03367059/n03367059_9485.JPEG","n04380533/n04380533_1490.JPEG"],"rt":15274},{"internal_node_id":"0.0-6.0","time_elapsed":92826,"trial_index":6,"trial_type":"generalization","sample_node":"n07744682","trial_type2":"3_ex","condition":"subordinate_condition","nonsense_word":"canney","train_images":["n07744682/n07744682_5824.JPEG","n07744682/n07744682_5281.JPEG","n07744682/n07744682_7057.JPEG"],"test_images":["n01503061/n01503061_13700.JPEG","n04451818/n04451818_8795.JPEG","n07744682/n07744682_6009.JPEG","n07739125/n07739125_3527.JPEG","n07739125/n07739125_4873.JPEG","n04524313/n04524313_2147.JPEG","n02512053/n02512053_2160.JPEG","n02512053/n02512053_2095.JPEG","n13104059/n13104059_10843.JPEG","n03405725/n03405725_31773.JPEG","n01503061/n01503061_9907.JPEG","n07744559/n07744559_4872.JPEG","n13104059/n13104059_6408.JPEG","n07758680/n07758680_11861.JPEG","n07739125/n07739125_1516.JPEG","n01503061/n01503061_8848.JPEG","n07744559/n07744559_322.JPEG","n01503061/n01503061_9869.JPEG","n07744682/n07744682_5571.JPEG","n04451818/n04451818_10191.JPEG","n01503061/n01503061_15344.JPEG","n04451818/n04451818_16164.JPEG","n13104059/n13104059_7564.JPEG","n03405725/n03405725_4096.JPEG"],"trial_ID":27,"responses":["n07744682/n07744682_6009.JPEG","n07744559/n07744559_4872.JPEG","n07758680/n07758680_11861.JPEG","n07744559/n07744559_322.JPEG","n07744682/n07744682_5571.JPEG"],"rt":13544},{"internal_node_id":"0.0-7.0","time_elapsed":110034,"trial_index":7,"trial_type":"generalization","sample_node":"n02803666","trial_type2":"10_ex","condition":"subordinate_condition","nonsense_word":"canney","train_images":["n02803666/n02803666_3951.JPEG","n02803666/n02803666_18539.JPEG","n02803666/n02803666_6635.JPEG","n02803666/n02803666_12237.JPEG","n02803666/n02803666_3274.JPEG","n02803666/n02803666_8307.JPEG","n02803666/n02803666_5691.JPEG","n02803666/n02803666_8936.JPEG","n02803666/n02803666_17923.JPEG","n02803666/n02803666_9712.JPEG"],"test_images":["n03051540/n03051540_10642.JPEG","n01503061/n01503061_3442.JPEG","n03405725/n03405725_36132.JPEG","n03467517/n03467517_15031.JPEG","n01503061/n01503061_17552.JPEG","n02803666/n02803666_5715.JPEG","n01503061/n01503061_5783.JPEG","n03928116/n03928116_9220.JPEG","n03051540/n03051540_51061.JPEG","n03405725/n03405725_13521.JPEG","n02803666/n02803666_13543.JPEG","n13104059/n13104059_12631.JPEG","n01503061/n01503061_9938.JPEG","n13104059/n13104059_3144.JPEG","n03928116/n03928116_12407.JPEG","n01503061/n01503061_239.JPEG","n03405725/n03405725_21781.JPEG","n03928116/n03928116_12829.JPEG","n03405725/n03405725_18105.JPEG","n04387400/n04387400_9003.JPEG","n01503061/n01503061_3115.JPEG","n02512053/n02512053_2583.JPEG","n04387400/n04387400_7452.JPEG","n01503061/n01503061_7526.JPEG"],"trial_ID":27,"responses":["n03467517/n03467517_15031.JPEG","n02803666/n02803666_5715.JPEG","n02803666/n02803666_13543.JPEG"],"rt":16191},{"internal_node_id":"0.0-8.0","time_elapsed":128572,"trial_index":8,"trial_type":"generalization","sample_node":"n02587300","trial_type2":"10_ex","condition":"subordinate_condition","nonsense_word":"canney","train_images":["n02587300/n02587300_5064.JPEG","n02587300/n02587300_7132.JPEG","n02587300/n02587300_8364.JPEG","n02587300/n02587300_6767.JPEG","n02587300/n02587300_2023.JPEG","n02587300/n02587300_7484.JPEG","n02587300/n02587300_3019.JPEG","n02587300/n02587300_9254.JPEG","n02587300/n02587300_1082.JPEG","n02587300/n02587300_6144.JPEG"],"test_images":["n02587051/n02587051_655.JPEG","n04524313/n04524313_16704.JPEG","n03405725/n03405725_8077.JPEG","n04524313/n04524313_4873.JPEG","n04524313/n04524313_9693.JPEG","n03051540/n03051540_4811.JPEG","n02534734/n02534734_6609.JPEG","n02534734/n02534734_2086.JPEG","n02587051/n02587051_172.JPEG","n03800933/n03800933_525.JPEG","n13134947/n13134947_12631.JPEG","n13134947/n13134947_3261.JPEG","n03800933/n03800933_17337.JPEG","n02534734/n02534734_8367.JPEG","n04524313/n04524313_179.JPEG","n13134947/n13134947_13744.JPEG","n02587300/n02587300_2776.JPEG","n04451818/n04451818_11373.JPEG","n02534734/n02534734_789.JPEG","n02587300/n02587300_5261.JPEG","n04524313/n04524313_4260.JPEG","n03405725/n03405725_8256.JPEG","n03405725/n03405725_28677.JPEG","n13134947/n13134947_3185.JPEG"],"trial_ID":27,"responses":["n02587051/n02587051_655.JPEG","n02534734/n02534734_8367.JPEG","n02534734/n02534734_789.JPEG","n02587300/n02587300_5261.JPEG"],"rt":17519},{"internal_node_id":"0.0-9.0","time_elapsed":141782,"trial_index":9,"trial_type":"generalization","sample_node":"n02783035","trial_type2":"3_ex","condition":"subordinate_condition","nonsense_word":"canney","train_images":["n02783035/n02783035_174.JPEG","n02783035/n02783035_1246.JPEG","n02783035/n02783035_1591.JPEG"],"test_images":["n04154565/n04154565_12390.JPEG","n04524313/n04524313_2689.JPEG","n04524313/n04524313_1172.JPEG","n03051540/n03051540_8360.JPEG","n13104059/n13104059_7303.JPEG","n04154565/n04154565_977.JPEG","n02512053/n02512053_4648.JPEG","n03800933/n03800933_4484.JPEG","n04524313/n04524313_3024.JPEG","n04140064/n04140064_7797.JPEG","n02966545/n02966545_2226.JPEG","n04524313/n04524313_1701.JPEG","n02783035/n02783035_1024.JPEG","n04524313/n04524313_3273.JPEG","n03800933/n03800933_6669.JPEG","n01503061/n01503061_9149.JPEG","n02783035/n02783035_551.JPEG","n04140064/n04140064_9304.JPEG","n02512053/n02512053_2821.JPEG","n02966545/n02966545_4610.JPEG","n04524313/n04524313_10275.JPEG","n03051540/n03051540_14032.JPEG","n01503061/n01503061_18208.JPEG","n01503061/n01503061_191.JPEG"],"trial_ID":27,"responses":["n02783035/n02783035_1024.JPEG","n02783035/n02783035_551.JPEG","n02512053/n02512053_2821.JPEG","n02966545/n02966545_4610.JPEG"],"rt":12194}],"__v":0}
{"_id":{"$oid":"591baa1aa4d39700047059ab"},"data":[{"internal_node_id":"0.0-2.0","time_elapsed":34696,"trial_index":2,"trial_type":"generalization","sample_node":"n03335030","trial_type2":"10_ex","condition":"subordinate_condition","nonsense_word":"rephan","train_images":["n03335030/n03335030_41478.JPEG","n03335030/n03335030_488.JPEG","n03335030/n03335030_5551.JPEG","n03335030/n03335030_15238.JPEG","n03335030/n03335030_14609.JPEG","n03335030/n03335030_5806.JPEG","n03335030/n03335030_6806.JPEG","n03335030/n03335030_15420.JPEG","n03335030/n03335030_3506.JPEG","n03335030/n03335030_17217.JPEG"],"test_images":["n03800933/n03800933_7469.JPEG","n04490091/n04490091_13312.JPEG","n04451818/n04451818_23231.JPEG","n03335030/n03335030_1442.JPEG","n01503061/n01503061_5741.JPEG","n02958343/n02958343_10092.JPEG","n04451818/n04451818_13828.JPEG","n13134947/n13134947_4113.JPEG","n03800933/n03800933_20806.JPEG","n04490091/n04490091_4468.JPEG","n01503061/n01503061_8034.JPEG","n13134947/n13134947_1958.JPEG","n03800933/n03800933_9148.JPEG","n03800933/n03800933_9914.JPEG","n03335030/n03335030_21971.JPEG","n04490091/n04490091_8878.JPEG","n02690373/n02690373_2268.JPEG","n03405725/n03405725_18863.JPEG","n13134947/n13134947_2119.JPEG","n13134947/n13134947_4398.JPEG","n02690373/n02690373_4921.JPEG","n03405725/n03405725_3198.JPEG","n13104059/n13104059_8861.JPEG","n01503061/n01503061_3828.JPEG"],"trial_ID":8,"responses":["n04451818/n04451818_23231.JPEG","n03335030/n03335030_1442.JPEG","n03335030/n03335030_21971.JPEG","n02690373/n02690373_4921.JPEG"],"rt":24584},{"internal_node_id":"0.0-3.0","time_elapsed":55239,"trial_index":3,"trial_type":"generalization","sample_node":"n03238879","trial_type2":"10_ex","condition":"subordinate_condition","nonsense_word":"rephan","train_images":["n03238879/n03238879_14012.JPEG","n03238879/n03238879_8463.JPEG","n03238879/n03238879_14981.JPEG","n03238879/n03238879_19070.JPEG","n03238879/n03238879_8206.JPEG","n03238879/n03238879_11844.JPEG","n03238879/n03238879_17873.JPEG","n03238879/n03238879_12119.JPEG","n03238879/n03238879_9606.JPEG","n03238879/n03238879_5269.JPEG"],"test_images":["n03405725/n03405725_1055.JPEG","n03800933/n03800933_24073.JPEG","n13104059/n13104059_5430.JPEG","n03800933/n03800933_27639.JPEG","n02512053/n02512053_2821.JPEG","n03978966/n03978966_2600.JPEG","n04524313/n04524313_4370.JPEG","n03978966/n03978966_1605.JPEG","n04451818/n04451818_14765.JPEG","n02512053/n02512053_5513.JPEG","n04254777/n04254777_17355.JPEG","n03800933/n03800933_22954.JPEG","n03238879/n03238879_8539.JPEG","n02512053/n02512053_7319.JPEG","n03800933/n03800933_9101.JPEG","n02512053/n02512053_5553.JPEG","n13134947/n13134947_2405.JPEG","n03800933/n03800933_5501.JPEG","n03405725/n03405725_13560.JPEG","n04254777/n04254777_16757.JPEG","n03238879/n03238879_9118.JPEG","n03800933/n03800933_987.JPEG","n04254777/n04254777_16509.JPEG","n04254777/n04254777_18133.JPEG"],"trial_ID":8,"responses":["n03238879/n03238879_8539.JPEG","n03238879/n03238879_9118.JPEG"],"rt":19536},{"internal_node_id":"0.0-4.0","time_elapsed":71630,"trial_index":4,"trial_type":"generalization","sample_node":"n01625562","trial_type2":"5_ex","condition":"subordinate_condition","nonsense_word":"rephan","train_images":["n01625562/n01625562_2473.JPEG","n01625562/n01625562_7670.JPEG","n01625562/n01625562_9312.JPEG","n01625562/n01625562_3371.JPEG","n01625562/n01625562_2511.JPEG"],"test_images":["n01622779/n01622779_6713.JPEG","n03051540/n03051540_20248.JPEG","n13104059/n13104059_6744.JPEG","n03051540/n03051540_44361.JPEG","n03405725/n03405725_27120.JPEG","n03405725/n03405725_134.JPEG","n01613294/n01613294_10966.JPEG","n01625562/n01625562_9987.JPEG","n04524313/n04524313_21978.JPEG","n04524313/n04524313_9675.JPEG","n01613294/n01613294_7699.JPEG","n04451818/n04451818_22131.JPEG","n04524313/n04524313_1342.JPEG","n13104059/n13104059_4929.JPEG","n01625562/n01625562_7614.JPEG","n01613294/n01613294_4104.JPEG","n03051540/n03051540_6985.JPEG","n13104059/n13104059_8248.JPEG","n04524313/n04524313_8214.JPEG","n01539573/n01539573_3505.JPEG","n04524313/n04524313_951.JPEG","n03051540/n03051540_8878.JPEG","n02512053/n02512053_7990.JPEG","n01622779/n01622779_4334.JPEG"],"trial_ID":8,"responses":["n01622779/n01622779_6713.JPEG","n01625562/n01625562_9987.JPEG","n01625562/n01625562_7614.JPEG","n01622779/n01622779_4334.JPEG"],"rt":15385},{"internal_node_id":"0.0-5.0","time_elapsed":93175,"trial_index":5,"trial_type":"generalization","sample_node":"n03405725","trial_type2":"5_ex","condition":"superordinate_condition","nonsense_word":"rephan","train_images":["n03405725/n03405725_34361.JPEG","n03405725/n03405725_16518.JPEG","n03405725/n03405725_4145.JPEG","n03405725/n03405725_30223.JPEG","n04380533/n04380533_2488.JPEG"],"test_images":["n04451818/n04451818_6348.JPEG","n04451818/n04451818_19369.JPEG","n04380533/n04380533_3864.JPEG","n01503061/n01503061_11028.JPEG","n13104059/n13104059_8630.JPEG","n03800933/n03800933_12810.JPEG","n03051540/n03051540_19997.JPEG","n04451818/n04451818_18686.JPEG","n03367059/n03367059_1238.JPEG","n04451818/n04451818_27262.JPEG","n04379243/n04379243_4708.JPEG","n03051540/n03051540_17572.JPEG","n02512053/n02512053_8584.JPEG","n03001627/n03001627_9786.JPEG","n01503061/n01503061_4572.JPEG","n03051540/n03051540_9823.JPEG","n01503061/n01503061_5182.JPEG","n03001627/n03001627_1504.JPEG","n03051540/n03051540_53260.JPEG","n04451818/n04451818_11354.JPEG","n04380533/n04380533_1490.JPEG","n02512053/n02512053_3574.JPEG","n03367059/n03367059_9485.JPEG","n04379243/n04379243_7123.JPEG"],"trial_ID":8,"responses":["n04380533/n04380533_3864.JPEG","n03367059/n03367059_1238.JPEG","n03001627/n03001627_9786.JPEG","n03001627/n03001627_1504.JPEG","n04380533/n04380533_1490.JPEG","n04379243/n04379243_7123.JPEG"],"rt":20538},{"internal_node_id":"0.0-6.0","time_elapsed":105470,"trial_index":6,"trial_type":"generalization","sample_node":"n07744559","trial_type2":"3_ex","condition":"subordinate_condition","nonsense_word":"rephan","train_images":["n07744559/n07744559_3919.JPEG","n07744559/n07744559_6982.JPEG","n07744559/n07744559_7439.JPEG"],"test_images":["n07744559/n07744559_374.JPEG","n07744559/n07744559_3697.JPEG","n01503061/n01503061_15344.JPEG","n07739125/n07739125_4873.JPEG","n04524313/n04524313_2147.JPEG","n07739125/n07739125_1516.JPEG","n07739125/n07739125_3527.JPEG","n03405725/n03405725_4096.JPEG","n03405725/n03405725_31773.JPEG","n04451818/n04451818_10191.JPEG","n01503061/n01503061_9869.JPEG","n01503061/n01503061_8848.JPEG","n07758680/n07758680_11861.JPEG","n02512053/n02512053_2095.JPEG","n01503061/n01503061_9907.JPEG","n13104059/n13104059_10843.JPEG","n04451818/n04451818_8795.JPEG","n01503061/n01503061_13700.JPEG","n13104059/n13104059_7564.JPEG","n13104059/n13104059_6408.JPEG","n07744682/n07744682_5488.JPEG","n07744682/n07744682_4587.JPEG","n02512053/n02512053_2160.JPEG","n04451818/n04451818_16164.JPEG"],"trial_ID":8,"responses":["n07744559/n07744559_374.JPEG","n07744559/n07744559_3697.JPEG","n07744682/n07744682_5488.JPEG","n07744682/n07744682_4587.JPEG"],"rt":11289},{"internal_node_id":"0.0-7.0","time_elapsed":120191,"trial_index":7,"trial_type":"generalization","sample_node":"n04387400","trial_type2":"1_ex","condition":"subordinate_condition","nonsense_word":"rephan","train_images":["n04387400/n04387400_6312.JPEG"],"test_images":["n01503061/n01503061_239.JPEG","n13104059/n13104059_3144.JPEG","n01503061/n01503061_3115.JPEG","n01503061/n01503061_7526.JPEG","n01503061/n01503061_17552.JPEG","n03928116/n03928116_9220.JPEG","n03405725/n03405725_21781.JPEG","n02803666/n02803666_3229.JPEG","n02512053/n02512053_2583.JPEG","n04387400/n04387400_13652.JPEG","n01503061/n01503061_5783.JPEG","n03467517/n03467517_15031.JPEG","n03051540/n03051540_51061.JPEG","n13104059/n13104059_12631.JPEG","n03051540/n03051540_10642.JPEG","n02803666/n02803666_6617.JPEG","n04387400/n04387400_7743.JPEG","n03405725/n03405725_13521.JPEG","n01503061/n01503061_9938.JPEG","n03405725/n03405725_18105.JPEG","n01503061/n01503061_3442.JPEG","n03405725/n03405725_36132.JPEG","n03928116/n03928116_12829.JPEG","n03928116/n03928116_12407.JPEG"],"trial_ID":8,"responses":["n03051540/n03051540_51061.JPEG"],"rt":13715},{"internal_node_id":"0.0-8.0","time_elapsed":142342,"trial_index":8,"trial_type":"generalization","sample_node":"n02534734","trial_type2":"10_ex","condition":"basic-level_condition","nonsense_word":"rephan","train_images":["n02536456/n02536456_4420.JPEG","n02534734/n02534734_13545.JPEG","n02534734/n02534734_1185.JPEG","n02534734/n02534734_848.JPEG","n02534734/n02534734_8129.JPEG","n02534734/n02534734_3229.JPEG","n02534734/n02534734_10710.JPEG","n02534734/n02534734_9559.JPEG","n02534734/n02534734_3558.JPEG","n02534734/n02534734_4948.JPEG"],"test_images":["n03405725/n03405725_8256.JPEG","n03800933/n03800933_17337.JPEG","n02536456/n02536456_6354.JPEG","n04524313/n04524313_16704.JPEG","n13134947/n13134947_13744.JPEG","n04451818/n04451818_11373.JPEG","n03405725/n03405725_8077.JPEG","n02537085/n02537085_7462.JPEG","n03051540/n03051540_4811.JPEG","n04524313/n04524313_4260.JPEG","n02536456/n02536456_2826.JPEG","n13134947/n13134947_12631.JPEG","n04524313/n04524313_9693.JPEG","n03405725/n03405725_28677.JPEG","n02586543/n02586543_4402.JPEG","n02537085/n02537085_5623.JPEG","n02537085/n02537085_9346.JPEG","n02535537/n02535537_11698.JPEG","n04524313/n04524313_179.JPEG","n13134947/n13134947_3261.JPEG","n13134947/n13134947_3185.JPEG","n02535537/n02535537_5119.JPEG","n03800933/n03800933_525.JPEG","n04524313/n04524313_4873.JPEG"],"trial_ID":8,"responses":["n02536456/n02536456_6354.JPEG","n02537085/n02537085_7462.JPEG","n02536456/n02536456_2826.JPEG","n02537085/n02537085_5623.JPEG","n02537085/n02537085_9346.JPEG","n02535537/n02535537_11698.JPEG","n02535537/n02535537_5119.JPEG"],"rt":21145},{"internal_node_id":"0.0-9.0","time_elapsed":177814,"trial_index":9,"trial_type":"generalization","sample_node":"n03361683","trial_type2":"10_ex","condition":"subordinate_condition","nonsense_word":"rephan","train_images":["n03361683/n03361683_829.JPEG","n03361683/n03361683_7.JPEG","n03361683/n03361683_407.JPEG","n03361683/n03361683_1557.JPEG","n03361683/n03361683_354.JPEG","n03361683/n03361683_741.JPEG","n03361683/n03361683_1583.JPEG","n03361683/n03361683_757.JPEG","n03361683/n03361683_1674.JPEG","n03361683/n03361683_27.JPEG"],"test_images":["n01503061/n01503061_191.JPEG","n04140064/n04140064_2292.JPEG","n01503061/n01503061_9149.JPEG","n04524313/n04524313_2689.JPEG","n04524313/n04524313_3024.JPEG","n03361683/n03361683_1043.JPEG","n04140064/n04140064_4127.JPEG","n04524313/n04524313_10275.JPEG","n03481172/n03481172_621.JPEG","n03051540/n03051540_8360.JPEG","n03800933/n03800933_4484.JPEG","n04524313/n04524313_1701.JPEG","n03923692/n03923692_1440.JPEG","n13104059/n13104059_7303.JPEG","n03800933/n03800933_6669.JPEG","n01503061/n01503061_18208.JPEG","n02512053/n02512053_4648.JPEG","n03923692/n03923692_2593.JPEG","n03361683/n03361683_946.JPEG","n04140064/n04140064_15436.JPEG","n03051540/n03051540_14032.JPEG","n02512053/n02512053_2821.JPEG","n04524313/n04524313_3273.JPEG","n04524313/n04524313_1172.JPEG"],"trial_ID":8,"responses":["n04140064/n04140064_4127.JPEG","n03481172/n03481172_621.JPEG","n03923692/n03923692_1440.JPEG","n03923692/n03923692_2593.JPEG","n03361683/n03361683_946.JPEG","n04140064/n04140064_15436.JPEG"],"rt":34466}],"__v":0}
{"_id":{"$oid":"591baa21a4d39700047059ac"},"data":[{"internal_node_id":"0.0-2.0","time_elapsed":61238,"trial_index":2,"trial_type":"generalization","sample_node":"n03335030","trial_type2":"1_ex","condition":"subordinate_condition","nonsense_word":"abroll","train_images":["n03335030/n03335030_5806.JPEG"],"test_images":["n02690373/n02690373_4921.JPEG","n03335030/n03335030_21971.JPEG","n13134947/n13134947_4113.JPEG","n03800933/n03800933_20806.JPEG","n04490091/n04490091_4468.JPEG","n01503061/n01503061_8034.JPEG","n02958343/n02958343_10092.JPEG","n03800933/n03800933_7469.JPEG","n13104059/n13104059_8861.JPEG","n04451818/n04451818_23231.JPEG","n13134947/n13134947_4398.JPEG","n03800933/n03800933_9148.JPEG","n03405725/n03405725_18863.JPEG","n01503061/n01503061_5741.JPEG","n03335030/n03335030_1442.JPEG","n04451818/n04451818_13828.JPEG","n01503061/n01503061_3828.JPEG","n03800933/n03800933_9914.JPEG","n04490091/n04490091_8878.JPEG","n13134947/n13134947_2119.JPEG","n03405725/n03405725_3198.JPEG","n02690373/n02690373_2268.JPEG","n13134947/n13134947_1958.JPEG","n04490091/n04490091_13312.JPEG"],"trial_ID":11,"responses":["n02690373/n02690373_4921.JPEG","n03335030/n03335030_21971.JPEG"],"rt":54089},{"internal_node_id":"0.0-3.0","time_elapsed":85567,"trial_index":3,"trial_type":"generalization","sample_node":"n04197391","trial_type2":"10_ex","condition":"basic-level_condition","nonsense_word":"abroll","train_images":["n04197391/n04197391_1982.JPEG","n03978966/n03978966_1603.JPEG","n04197391/n04197391_4686.JPEG","n04197391/n04197391_2635.JPEG","n04197391/n04197391_733.JPEG","n04197391/n04197391_446.JPEG","n04197391/n04197391_3401.JPEG","n04197391/n04197391_6958.JPEG","n04197391/n04197391_1072.JPEG","n04197391/n04197391_535.JPEG"],"test_images":["n13104059/n13104059_5430.JPEG","n03238879/n03238879_14233.JPEG","n03978966/n03978966_7267.JPEG","n04524313/n04524313_4370.JPEG","n04254777/n04254777_17355.JPEG","n04254777/n04254777_18133.JPEG","n04451818/n04451818_14765.JPEG","n04254777/n04254777_16757.JPEG","n02512053/n02512053_2821.JPEG","n03800933/n03800933_22954.JPEG","n03238879/n03238879_12359.JPEG","n03800933/n03800933_24073.JPEG","n13134947/n13134947_2405.JPEG","n02512053/n02512053_5513.JPEG","n03800933/n03800933_9101.JPEG","n02512053/n02512053_5553.JPEG","n03978966/n03978966_16325.JPEG","n03405725/n03405725_1055.JPEG","n03405725/n03405725_13560.JPEG","n04254777/n04254777_16509.JPEG","n02512053/n02512053_7319.JPEG","n03800933/n03800933_27639.JPEG","n03800933/n03800933_987.JPEG","n03800933/n03800933_5501.JPEG"],"trial_ID":11,"responses":["n03978966/n03978966_7267.JPEG","n03238879/n03238879_12359.JPEG","n03978966/n03978966_16325.JPEG"],"rt":23244},{"internal_node_id":"0.0-4.0","time_elapsed":101585,"trial_index":4,"trial_type":"generalization","sample_node":"n01625562","trial_type2":"1_ex","condition":"subordinate_condition","nonsense_word":"abroll","train_images":["n01625562/n01625562_7670.JPEG"],"test_images":["n03405725/n03405725_134.JPEG","n01625562/n01625562_9987.JPEG","n04524313/n04524313_9675.JPEG","n13104059/n13104059_6744.JPEG","n01613294/n01613294_10966.JPEG","n04451818/n04451818_22131.JPEG","n01613294/n01613294_7699.JPEG","n01613294/n01613294_4104.JPEG","n04524313/n04524313_951.JPEG","n03405725/n03405725_27120.JPEG","n01539573/n01539573_3505.JPEG","n13104059/n13104059_4929.JPEG","n04524313/n04524313_8214.JPEG","n01625562/n01625562_7614.JPEG","n01622779/n01622779_6713.JPEG","n04524313/n04524313_21978.JPEG","n02512053/n02512053_7990.JPEG","n03051540/n03051540_8878.JPEG","n01622779/n01622779_4334.JPEG","n03051540/n03051540_20248.JPEG","n04524313/n04524313_1342.JPEG","n13104059/n13104059_8248.JPEG","n03051540/n03051540_44361.JPEG","n03051540/n03051540_6985.JPEG"],"trial_ID":11,"responses":["n01625562/n01625562_9987.JPEG","n01625562/n01625562_7614.JPEG","n01622779/n01622779_4334.JPEG"],"rt":14954},{"internal_node_id":"0.0-5.0","time_elapsed":117555,"trial_index":5,"trial_type":"generalization","sample_node":"n02738535","trial_type2":"5_ex","condition":"subordinate_condition","nonsense_word":"abroll","train_images":["n02738535/n02738535_587.JPEG","n02738535/n02738535_479.JPEG","n02738535/n02738535_10531.JPEG","n02738535/n02738535_16183.JPEG","n02738535/n02738535_10241.JPEG"],"test_images":["n04379243/n04379243_13890.JPEG","n04451818/n04451818_18686.JPEG","n03800933/n03800933_12810.JPEG","n02738535/n02738535_3897.JPEG","n04451818/n04451818_11354.JPEG","n04451818/n04451818_19369.JPEG","n02512053/n02512053_3574.JPEG","n04451818/n04451818_27262.JPEG","n03051540/n03051540_19997.JPEG","n04451818/n04451818_6348.JPEG","n01503061/n01503061_5182.JPEG","n03051540/n03051540_53260.JPEG","n13104059/n13104059_8630.JPEG","n04379243/n04379243_29906.JPEG","n04331277/n04331277_5580.JPEG","n03051540/n03051540_9823.JPEG","n04379243/n04379243_13010.JPEG","n01503061/n01503061_4572.JPEG","n04331277/n04331277_5495.JPEG","n02512053/n02512053_8584.JPEG","n04379243/n04379243_6075.JPEG","n01503061/n01503061_11028.JPEG","n02738535/n02738535_15512.JPEG","n03051540/n03051540_17572.JPEG"],"trial_ID":11,"responses":["n02738535/n02738535_3897.JPEG"],"rt":14903},{"internal_node_id":"0.0-6.0","time_elapsed":133137,"trial_index":6,"trial_type":"generalization","sample_node":"n07744246","trial_type2":"3_ex","condition":"basic-level_condition","nonsense_word":"abroll","train_images":["n07744682/n07744682_5824.JPEG","n07744246/n07744246_11431.JPEG","n07744246/n07744246_4526.JPEG"],"test_images":["n04524313/n04524313_2147.JPEG","n13104059/n13104059_10843.JPEG","n01503061/n01503061_15344.JPEG","n03405725/n03405725_31773.JPEG","n01503061/n01503061_8848.JPEG","n07739125/n07739125_1516.JPEG","n07744559/n07744559_4872.JPEG","n01503061/n01503061_13700.JPEG","n02512053/n02512053_2160.JPEG","n04451818/n04451818_16164.JPEG","n04451818/n04451818_10191.JPEG","n13104059/n13104059_7564.JPEG","n07744682/n07744682_5571.JPEG","n13104059/n13104059_6408.JPEG","n02512053/n02512053_2095.JPEG","n01503061/n01503061_9869.JPEG","n07744559/n07744559_322.JPEG","n07739125/n07739125_3527.JPEG","n07744682/n07744682_6009.JPEG","n07758680/n07758680_11861.JPEG","n04451818/n04451818_8795.JPEG","n03405725/n03405725_4096.JPEG","n01503061/n01503061_9907.JPEG","n07739125/n07739125_4873.JPEG"],"trial_ID":11,"responses":["n07744559/n07744559_4872.JPEG","n07744682/n07744682_6009.JPEG","n07758680/n07758680_11861.JPEG"],"rt":14538},{"internal_node_id":"0.0-7.0","time_elapsed":144801,"trial_index":7,"trial_type":"generalization","sample_node":"n02803666","trial_type2":"1_ex","condition":"subordinate_condition","nonsense_word":"abroll","train_images":["n02803666/n02803666_8936.JPEG"],"test_images":["n01503061/n01503061_3115.JPEG","n01503061/n01503061_3442.JPEG","n02803666/n02803666_13543.JPEG","n01503061/n01503061_9938.JPEG","n01503061/n01503061_7526.JPEG","n01503061/n01503061_17552.JPEG","n03467517/n03467517_15031.JPEG","n03928116/n03928116_12829.JPEG","n03928116/n03928116_12407.JPEG","n03405725/n03405725_36132.JPEG","n03928116/n03928116_9220.JPEG","n03405725/n03405725_13521.JPEG","n01503061/n01503061_239.JPEG","n04387400/n04387400_7452.JPEG","n03051540/n03051540_10642.JPEG","n02803666/n02803666_5715.JPEG","n02512053/n02512053_2583.JPEG","n03051540/n03051540_51061.JPEG","n01503061/n01503061_5783.JPEG","n13104059/n13104059_3144.JPEG","n03405725/n03405725_18105.JPEG","n04387400/n04387400_9003.JPEG","n13104059/n13104059_12631.JPEG","n03405725/n03405725_21781.JPEG"],"trial_ID":11,"responses":["n02803666/n02803666_5715.JPEG","n04387400/n04387400_9003.JPEG"],"rt":10606},{"internal_node_id":"0.0-8.0","time_elapsed":162311,"trial_index":8,"trial_type":"generalization","sample_node":"n02536456","trial_type2":"1_ex","condition":"subordinate_condition","nonsense_word":"abroll","train_images":["n02536456/n02536456_4420.JPEG"],"test_images":["n02535537/n02535537_11698.JPEG","n02537085/n02537085_7462.JPEG","n04524313/n04524313_9693.JPEG","n03405725/n03405725_8077.JPEG","n03051540/n03051540_4811.JPEG","n03405725/n03405725_28677.JPEG","n02537085/n02537085_9346.JPEG","n04524313/n04524313_179.JPEG","n13134947/n13134947_12631.JPEG","n13134947/n13134947_3261.JPEG","n04524313/n04524313_4873.JPEG","n02535537/n02535537_5119.JPEG","n13134947/n13134947_3185.JPEG","n03405725/n03405725_8256.JPEG","n04524313/n04524313_16704.JPEG","n04524313/n04524313_4260.JPEG","n03800933/n03800933_17337.JPEG","n02586543/n02586543_4402.JPEG","n04451818/n04451818_11373.JPEG","n02537085/n02537085_5623.JPEG","n02536456/n02536456_6354.JPEG","n03800933/n03800933_525.JPEG","n13134947/n13134947_13744.JPEG","n02536456/n02536456_2826.JPEG"],"trial_ID":11,"responses":["n02535537/n02535537_11698.JPEG","n02536456/n02536456_6354.JPEG"],"rt":16483},{"internal_node_id":"0.0-9.0","time_elapsed":182422,"trial_index":9,"trial_type":"generalization","sample_node":"n03474779","trial_type2":"3_ex","condition":"subordinate_condition","nonsense_word":"abroll","train_images":["n03474779/n03474779_12748.JPEG","n03474779/n03474779_14067.JPEG","n03474779/n03474779_3206.JPEG"],"test_images":["n04524313/n04524313_3024.JPEG","n01503061/n01503061_191.JPEG","n04524313/n04524313_1172.JPEG","n03800933/n03800933_6669.JPEG","n04154565/n04154565_10881.JPEG","n03800933/n03800933_4484.JPEG","n04154565/n04154565_9924.JPEG","n02512053/n02512053_4648.JPEG","n03481172/n03481172_6521.JPEG","n04524313/n04524313_2689.JPEG","n01503061/n01503061_18208.JPEG","n04524313/n04524313_3273.JPEG","n01503061/n01503061_9149.JPEG","n04524313/n04524313_1701.JPEG","n03474779/n03474779_8446.JPEG","n03136504/n03136504_2190.JPEG","n13104059/n13104059_7303.JPEG","n03481172/n03481172_2694.JPEG","n03051540/n03051540_14032.JPEG","n03136504/n03136504_3518.JPEG","n03051540/n03051540_8360.JPEG","n04524313/n04524313_10275.JPEG","n03474779/n03474779_10221.JPEG","n02512053/n02512053_2821.JPEG"],"trial_ID":11,"responses":["n04154565/n04154565_9924.JPEG","n03481172/n03481172_6521.JPEG","n03481172/n03481172_2694.JPEG"],"rt":19060}],"__v":0}
{"_id":{"$oid":"591baa32a4d39700047059ad"},"data":[{"internal_node_id":"0.0-2.0","time_elapsed":28178,"trial_index":2,"trial_type":"generalization","sample_node":"n03335030","trial_type2":"5_ex","condition":"subordinate_condition","nonsense_word":"canney","train_images":["n03335030/n03335030_14609.JPEG","n03335030/n03335030_5551.JPEG","n03335030/n03335030_5806.JPEG","n03335030/n03335030_3506.JPEG","n03335030/n03335030_41478.JPEG"],"test_images":["n04451818/n04451818_13828.JPEG","n03335030/n03335030_21971.JPEG","n03800933/n03800933_7469.JPEG","n03800933/n03800933_9148.JPEG","n03405725/n03405725_18863.JPEG","n03800933/n03800933_9914.JPEG","n03800933/n03800933_20806.JPEG","n04451818/n04451818_23231.JPEG","n01503061/n01503061_8034.JPEG","n13134947/n13134947_4398.JPEG","n03405725/n03405725_3198.JPEG","n13134947/n13134947_4113.JPEG","n04490091/n04490091_4468.JPEG","n04490091/n04490091_13312.JPEG","n02958343/n02958343_10092.JPEG","n13134947/n13134947_2119.JPEG","n03335030/n03335030_1442.JPEG","n13104059/n13104059_8861.JPEG","n02690373/n02690373_2268.JPEG","n04490091/n04490091_8878.JPEG","n02690373/n02690373_4921.JPEG","n01503061/n01503061_3828.JPEG","n13134947/n13134947_1958.JPEG","n01503061/n01503061_5741.JPEG"],"trial_ID":28,"responses":["n03335030/n03335030_21971.JPEG","n04451818/n04451818_23231.JPEG","n03335030/n03335030_1442.JPEG","n02690373/n02690373_2268.JPEG","n02690373/n02690373_4921.JPEG"],"rt":20183},{"internal_node_id":"0.0-3.0","time_elapsed":51117,"trial_index":3,"trial_type":"generalization","sample_node":"n04254777","trial_type2":"3_ex","condition":"basic-level_condition","nonsense_word":"canney","train_images":["n04254777/n04254777_10352.JPEG","n02752496/n02752496_3804.JPEG","n04254777/n04254777_17657.JPEG"],"test_images":["n03800933/n03800933_22954.JPEG","n03800933/n03800933_27639.JPEG","n04489008/n04489008_2297.JPEG","n03800933/n03800933_987.JPEG","n04489008/n04489008_10746.JPEG","n02512053/n02512053_7319.JPEG","n03800933/n03800933_9101.JPEG","n02752496/n02752496_1192.JPEG","n03622931/n03622931_12311.JPEG","n02752496/n02752496_4377.JPEG","n13134947/n13134947_2405.JPEG","n03405725/n03405725_13560.JPEG","n03800933/n03800933_5501.JPEG","n03405725/n03405725_1055.JPEG","n03800933/n03800933_24073.JPEG","n02512053/n02512053_5513.JPEG","n04451818/n04451818_14765.JPEG","n04489008/n04489008_15278.JPEG","n04524313/n04524313_4370.JPEG","n13104059/n13104059_5430.JPEG","n02512053/n02512053_5553.JPEG","n04489008/n04489008_11460.JPEG","n02512053/n02512053_2821.JPEG","n03622931/n03622931_9158.JPEG"],"trial_ID":28,"responses":["n04489008/n04489008_2297.JPEG","n02752496/n02752496_1192.JPEG","n03622931/n03622931_12311.JPEG","n02752496/n02752496_4377.JPEG","n03622931/n03622931_9158.JPEG"],"rt":21901},{"internal_node_id":"0.0-4.0","time_elapsed":76602,"trial_index":4,"trial_type":"generalization","sample_node":"n01613294","trial_type2":"3_ex","condition":"basic-level_condition","nonsense_word":"canney","train_images":["n01614343/n01614343_5978.JPEG","n01613294/n01613294_13075.JPEG","n01613294/n01613294_6127.JPEG"],"test_images":["n04524313/n04524313_1342.JPEG","n01621127/n01621127_767.JPEG","n03051540/n03051540_8878.JPEG","n01539573/n01539573_2662.JPEG","n01614925/n01614925_6326.JPEG","n01614343/n01614343_3595.JPEG","n13104059/n13104059_6744.JPEG","n03405725/n03405725_27120.JPEG","n04451818/n04451818_22131.JPEG","n04524313/n04524313_9675.JPEG","n01614343/n01614343_996.JPEG","n13104059/n13104059_4929.JPEG","n02512053/n02512053_7990.JPEG","n03051540/n03051540_44361.JPEG","n03051540/n03051540_6985.JPEG","n04524313/n04524313_8214.JPEG","n03405725/n03405725_134.JPEG","n04524313/n04524313_21978.JPEG","n01539573/n01539573_2438.JPEG","n13104059/n13104059_8248.JPEG","n01614925/n01614925_2416.JPEG","n04524313/n04524313_951.JPEG","n03051540/n03051540_20248.JPEG","n01621127/n01621127_9312.JPEG"],"trial_ID":28,"responses":["n01621127/n01621127_767.JPEG","n01539573/n01539573_2662.JPEG","n01614925/n01614925_6326.JPEG","n01614343/n01614343_3595.JPEG","n01614343/n01614343_996.JPEG","n01539573/n01539573_2438.JPEG","n01614925/n01614925_2416.JPEG","n01621127/n01621127_9312.JPEG"],"rt":24445},{"internal_node_id":"0.0-5.0","time_elapsed":93823,"trial_index":5,"trial_type":"generalization","sample_node":"n02738535","trial_type2":"3_ex","condition":"subordinate_condition","nonsense_word":"canney","train_images":["n02738535/n02738535_10531.JPEG","n02738535/n02738535_479.JPEG","n02738535/n02738535_10241.JPEG"],"test_images":["n04379243/n04379243_13890.JPEG","n02512053/n02512053_8584.JPEG","n04451818/n04451818_11354.JPEG","n03051540/n03051540_19997.JPEG","n04379243/n04379243_13010.JPEG","n04379243/n04379243_6075.JPEG","n03051540/n03051540_53260.JPEG","n04451818/n04451818_18686.JPEG","n04451818/n04451818_19369.JPEG","n13104059/n13104059_8630.JPEG","n02738535/n02738535_15512.JPEG","n04451818/n04451818_6348.JPEG","n03051540/n03051540_17572.JPEG","n02512053/n02512053_3574.JPEG","n04451818/n04451818_27262.JPEG","n04379243/n04379243_29906.JPEG","n01503061/n01503061_4572.JPEG","n04331277/n04331277_5580.JPEG","n03051540/n03051540_9823.JPEG","n04331277/n04331277_5495.JPEG","n02738535/n02738535_3897.JPEG","n03800933/n03800933_12810.JPEG","n01503061/n01503061_11028.JPEG","n01503061/n01503061_5182.JPEG"],"trial_ID":28,"responses":["n04379243/n04379243_13890.JPEG","n04331277/n04331277_5580.JPEG","n04331277/n04331277_5495.JPEG","n02738535/n02738535_3897.JPEG"],"rt":16190},{"internal_node_id":"0.0-6.0","time_elapsed":111292,"trial_index":6,"trial_type":"generalization","sample_node":"n07739125","trial_type2":"5_ex","condition":"basic-level_condition","nonsense_word":"canney","train_images":["n07740954/n07740954_18751.JPEG","n07739125/n07739125_3392.JPEG","n07739125/n07739125_11828.JPEG","n07739125/n07739125_11547.JPEG","n07739125/n07739125_12.JPEG"],"test_images":["n03405725/n03405725_4096.JPEG","n07740954/n07740954_6244.JPEG","n07758680/n07758680_22072.JPEG","n13104059/n13104059_6408.JPEG","n07744246/n07744246_4555.JPEG","n07740220/n07740220_7156.JPEG","n07758680/n07758680_16063.JPEG","n07744246/n07744246_3333.JPEG","n04451818/n04451818_10191.JPEG","n04524313/n04524313_2147.JPEG","n07740954/n07740954_14534.JPEG","n04451818/n04451818_8795.JPEG","n01503061/n01503061_15344.JPEG","n13104059/n13104059_7564.JPEG","n01503061/n01503061_13700.JPEG","n13104059/n13104059_10843.JPEG","n07740220/n07740220_4856.JPEG","n01503061/n01503061_8848.JPEG","n01503061/n01503061_9869.JPEG","n02512053/n02512053_2160.JPEG","n03405725/n03405725_31773.JPEG","n01503061/n01503061_9907.JPEG","n02512053/n02512053_2095.JPEG","n04451818/n04451818_16164.JPEG"],"trial_ID":28,"responses":["n07740954/n07740954_6244.JPEG","n07758680/n07758680_22072.JPEG","n07744246/n07744246_4555.JPEG","n07740220/n07740220_7156.JPEG","n07744246/n07744246_3333.JPEG","n07740954/n07740954_14534.JPEG","n07740220/n07740220_4856.JPEG"],"rt":16432},{"internal_node_id":"0.0-7.0","time_elapsed":126347,"trial_index":7,"trial_type":"generalization","sample_node":"n03928116","trial_type2":"3_ex","condition":"basic-level_condition","nonsense_word":"canney","train_images":["n03928116/n03928116_6549.JPEG","n03928116/n03928116_3416.JPEG","n04515003/n04515003_13696.JPEG"],"test_images":["n03405725/n03405725_18105.JPEG","n03467517/n03467517_19609.JPEG","n02512053/n02512053_2583.JPEG","n03452741/n03452741_3041.JPEG","n01503061/n01503061_3115.JPEG","n04515003/n04515003_8128.JPEG","n01503061/n01503061_239.JPEG","n01503061/n01503061_7526.JPEG","n03405725/n03405725_13521.JPEG","n03467517/n03467517_4144.JPEG","n03405725/n03405725_36132.JPEG","n03051540/n03051540_10642.JPEG","n13104059/n13104059_3144.JPEG","n01503061/n01503061_3442.JPEG","n13104059/n13104059_12631.JPEG","n01503061/n01503061_5783.JPEG","n03249569/n03249569_20874.JPEG","n03405725/n03405725_21781.JPEG","n01503061/n01503061_17552.JPEG","n03467517/n03467517_5038.JPEG","n04515003/n04515003_4650.JPEG","n03452741/n03452741_22009.JPEG","n03051540/n03051540_51061.JPEG","n01503061/n01503061_9938.JPEG"],"trial_ID":28,"responses":["n04515003/n04515003_8128.JPEG","n04515003/n04515003_4650.JPEG","n03452741/n03452741_22009.JPEG"],"rt":14017},{"internal_node_id":"0.0-8.0","time_elapsed":161527,"trial_index":8,"trial_type":"generalization","sample_node":"n02512053","trial_type2":"10_ex","condition":"superordinate_condition","nonsense_word":"canney","train_images":["n02512053/n02512053_2184.JPEG","n02512053/n02512053_3763.JPEG","n02512053/n02512053_6851.JPEG","n02512053/n02512053_2335.JPEG","n02512053/n02512053_1964.JPEG","n02536456/n02536456_4420.JPEG","n02512053/n02512053_11693.JPEG","n02512053/n02512053_3289.JPEG","n02512053/n02512053_4855.JPEG","n02512053/n02512053_3576.JPEG"],"test_images":["n03405725/n03405725_28677.JPEG","n04524313/n04524313_179.JPEG","n02536456/n02536456_6354.JPEG","n02535537/n02535537_11698.JPEG","n04524313/n04524313_16704.JPEG","n03405725/n03405725_8256.JPEG","n03800933/n03800933_17337.JPEG","n13134947/n13134947_13744.JPEG","n02536456/n02536456_2826.JPEG","n13134947/n13134947_3185.JPEG","n02537085/n02537085_7462.JPEG","n03405725/n03405725_8077.JPEG","n04524313/n04524313_9693.JPEG","n02586543/n02586543_4402.JPEG","n04524313/n04524313_4260.JPEG","n03800933/n03800933_525.JPEG","n02537085/n02537085_5623.JPEG","n04524313/n04524313_4873.JPEG","n02537085/n02537085_9346.JPEG","n13134947/n13134947_12631.JPEG","n04451818/n04451818_11373.JPEG","n13134947/n13134947_3261.JPEG","n02535537/n02535537_5119.JPEG","n03051540/n03051540_4811.JPEG"],"trial_ID":28,"responses":["n02536456/n02536456_6354.JPEG","n02535537/n02535537_11698.JPEG","n02536456/n02536456_2826.JPEG","n02537085/n02537085_9346.JPEG"],"rt":34150},{"internal_node_id":"0.0-9.0","time_elapsed":172413,"trial_index":9,"trial_type":"generalization","sample_node":"n03923692","trial_type2":"1_ex","condition":"subordinate_condition","nonsense_word":"canney","train_images":["n03923692/n03923692_2523.JPEG"],"test_images":["n04524313/n04524313_2689.JPEG","n03361683/n03361683_40.JPEG","n04140064/n04140064_2292.JPEG","n13104059/n13104059_7303.JPEG","n02512053/n02512053_4648.JPEG","n03923692/n03923692_1086.JPEG","n01503061/n01503061_191.JPEG","n03800933/n03800933_4484.JPEG","n04524313/n04524313_10275.JPEG","n03923692/n03923692_4163.JPEG","n03800933/n03800933_6669.JPEG","n01503061/n01503061_18208.JPEG","n03481172/n03481172_621.JPEG","n03361683/n03361683_229.JPEG","n04140064/n04140064_4127.JPEG","n03051540/n03051540_8360.JPEG","n04140064/n04140064_15436.JPEG","n04524313/n04524313_1701.JPEG","n04524313/n04524313_3273.JPEG","n03051540/n03051540_14032.JPEG","n04524313/n04524313_3024.JPEG","n04524313/n04524313_1172.JPEG","n02512053/n02512053_2821.JPEG","n01503061/n01503061_9149.JPEG"],"trial_ID":28,"responses":["n03923692/n03923692_1086.JPEG","n03923692/n03923692_4163.JPEG","n03361683/n03361683_229.JPEG"],"rt":9853}],"__v":0}
{"_id":{"$oid":"591baa35a4d39700047059ae"},"data":[{"internal_node_id":"0.0-2.0","time_elapsed":34986,"trial_index":2,"trial_type":"generalization","sample_node":"n04285008","trial_type2":"3_ex","condition":"subordinate_condition","nonsense_word":"canney","train_images":["n04285008/n04285008_3864.JPEG","n04285008/n04285008_15194.JPEG","n04285008/n04285008_9919.JPEG"],"test_images":["n04490091/n04490091_6258.JPEG","n04451818/n04451818_23231.JPEG","n13134947/n13134947_4113.JPEG","n03800933/n03800933_9148.JPEG","n01503061/n01503061_3828.JPEG","n04490091/n04490091_9040.JPEG","n03405725/n03405725_3198.JPEG","n03800933/n03800933_7469.JPEG","n13104059/n13104059_8861.JPEG","n13134947/n13134947_4398.JPEG","n01503061/n01503061_5741.JPEG","n04285008/n04285008_6271.JPEG","n13134947/n13134947_2119.JPEG","n04285008/n04285008_8606.JPEG","n03800933/n03800933_9914.JPEG","n01503061/n01503061_8034.JPEG","n03405725/n03405725_18863.JPEG","n04490091/n04490091_3218.JPEG","n13134947/n13134947_1958.JPEG","n04166281/n04166281_19889.JPEG","n02691156/n02691156_7472.JPEG","n04166281/n04166281_6916.JPEG","n04451818/n04451818_13828.JPEG","n03800933/n03800933_20806.JPEG"],"trial_ID":39,"responses":["n04285008/n04285008_6271.JPEG","n04285008/n04285008_8606.JPEG","n04166281/n04166281_19889.JPEG","n04166281/n04166281_6916.JPEG"],"rt":25616},{"internal_node_id":"0.0-3.0","time_elapsed":53024,"trial_index":3,"trial_type":"generalization","sample_node":"n03051540","trial_type2":"10_ex","condition":"superordinate_condition","nonsense_word":"canney","train_images":["n03051540/n03051540_20153.JPEG","n03051540/n03051540_54724.JPEG","n03051540/n03051540_8806.JPEG","n03051540/n03051540_2895.JPEG","n03051540/n03051540_1023.JPEG","n03051540/n03051540_12097.JPEG","n03051540/n03051540_1345.JPEG","n02752496/n02752496_3804.JPEG","n03051540/n03051540_23950.JPEG","n03051540/n03051540_29449.JPEG"],"test_images":["n03800933/n03800933_987.JPEG","n02512053/n02512053_7319.JPEG","n03622931/n03622931_12311.JPEG","n03405725/n03405725_13560.JPEG","n03800933/n03800933_27639.JPEG","n13134947/n13134947_2405.JPEG","n04489008/n04489008_2297.JPEG","n02752496/n02752496_1192.JPEG","n03800933/n03800933_5501.JPEG","n04524313/n04524313_4370.JPEG","n02512053/n02512053_5553.JPEG","n03800933/n03800933_24073.JPEG","n03800933/n03800933_9101.JPEG","n13104059/n13104059_5430.JPEG","n02512053/n02512053_2821.JPEG","n04451818/n04451818_14765.JPEG","n04489008/n04489008_15278.JPEG","n03405725/n03405725_1055.JPEG","n02512053/n02512053_5513.JPEG","n03622931/n03622931_9158.JPEG","n04489008/n04489008_11460.JPEG","n04489008/n04489008_10746.JPEG","n03800933/n03800933_22954.JPEG","n02752496/n02752496_4377.JPEG"],"trial_ID":39,"responses":["n04489008/n04489008_2297.JPEG","n02752496/n02752496_1192.JPEG","n04489008/n04489008_11460.JPEG","n04489008/n04489008_10746.JPEG","n02752496/n02752496_4377.JPEG"],"rt":16936},{"internal_node_id":"0.0-4.0","time_elapsed":71170,"trial_index":4,"trial_type":"generalization","sample_node":"n01503061","trial_type2":"10_ex","condition":"superordinate_condition","nonsense_word":"canney","train_images":["n01503061/n01503061_364.JPEG","n01503061/n01503061_15053.JPEG","n01503061/n01503061_21317.JPEG","n01503061/n01503061_10017.JPEG","n01503061/n01503061_3532.JPEG","n01503061/n01503061_2473.JPEG","n01503061/n01503061_13294.JPEG","n01503061/n01503061_7037.JPEG","n01503061/n01503061_11237.JPEG","n01622779/n01622779_3237.JPEG"],"test_images":["n01539573/n01539573_3505.JPEG","n01622779/n01622779_2661.JPEG","n01625562/n01625562_7394.JPEG","n13104059/n13104059_4929.JPEG","n04524313/n04524313_9675.JPEG","n13104059/n13104059_6744.JPEG","n03051540/n03051540_8878.JPEG","n01613294/n01613294_7699.JPEG","n02512053/n02512053_7990.JPEG","n04524313/n04524313_1342.JPEG","n01613294/n01613294_10966.JPEG","n03051540/n03051540_20248.JPEG","n04524313/n04524313_21978.JPEG","n01622779/n01622779_6602.JPEG","n04524313/n04524313_8214.JPEG","n04524313/n04524313_951.JPEG","n01613294/n01613294_4104.JPEG","n04451818/n04451818_22131.JPEG","n03405725/n03405725_134.JPEG","n03051540/n03051540_44361.JPEG","n13104059/n13104059_8248.JPEG","n01625562/n01625562_7378.JPEG","n03405725/n03405725_27120.JPEG","n03051540/n03051540_6985.JPEG"],"trial_ID":39,"responses":["n01539573/n01539573_3505.JPEG","n01622779/n01622779_2661.JPEG","n01625562/n01625562_7394.JPEG","n01613294/n01613294_7699.JPEG","n01613294/n01613294_10966.JPEG","n01622779/n01622779_6602.JPEG","n01613294/n01613294_4104.JPEG","n01625562/n01625562_7378.JPEG"],"rt":17042},{"internal_node_id":"0.0-5.0","time_elapsed":94706,"trial_index":5,"trial_type":"generalization","sample_node":"n03636248","trial_type2":"3_ex","condition":"basic-level_condition","nonsense_word":"canney","train_images":["n03636248/n03636248_10121.JPEG","n03636248/n03636248_10553.JPEG","n04380533/n04380533_2488.JPEG"],"test_images":["n04379243/n04379243_4708.JPEG","n04451818/n04451818_18686.JPEG","n02512053/n02512053_3574.JPEG","n02512053/n02512053_8584.JPEG","n04380533/n04380533_1490.JPEG","n03051540/n03051540_9823.JPEG","n03051540/n03051540_17572.JPEG","n03001627/n03001627_9786.JPEG","n03001627/n03001627_1504.JPEG","n13104059/n13104059_8630.JPEG","n03051540/n03051540_53260.JPEG","n03367059/n03367059_9485.JPEG","n04380533/n04380533_3864.JPEG","n04451818/n04451818_11354.JPEG","n04379243/n04379243_7123.JPEG","n01503061/n01503061_5182.JPEG","n03051540/n03051540_19997.JPEG","n04451818/n04451818_6348.JPEG","n03367059/n03367059_1238.JPEG","n04451818/n04451818_19369.JPEG","n01503061/n01503061_11028.JPEG","n03800933/n03800933_12810.JPEG","n01503061/n01503061_4572.JPEG","n04451818/n04451818_27262.JPEG"],"trial_ID":39,"responses":["n04379243/n04379243_4708.JPEG","n04380533/n04380533_1490.JPEG","n04380533/n04380533_3864.JPEG","n03367059/n03367059_1238.JPEG"],"rt":22445},{"internal_node_id":"0.0-6.0","time_elapsed":110483,"trial_index":6,"trial_type":"generalization","sample_node":"n07744682","trial_type2":"1_ex","condition":"subordinate_condition","nonsense_word":"canney","train_images":["n07744682/n07744682_5824.JPEG"],"test_images":["n13104059/n13104059_7564.JPEG","n13104059/n13104059_10843.JPEG","n07739125/n07739125_4873.JPEG","n04451818/n04451818_8795.JPEG","n07744682/n07744682_5571.JPEG","n13104059/n13104059_6408.JPEG","n07739125/n07739125_1516.JPEG","n01503061/n01503061_15344.JPEG","n03405725/n03405725_4096.JPEG","n02512053/n02512053_2095.JPEG","n01503061/n01503061_9869.JPEG","n02512053/n02512053_2160.JPEG","n01503061/n01503061_8848.JPEG","n04524313/n04524313_2147.JPEG","n04451818/n04451818_10191.JPEG","n03405725/n03405725_31773.JPEG","n07758680/n07758680_11861.JPEG","n07744559/n07744559_4872.JPEG","n01503061/n01503061_9907.JPEG","n07744559/n07744559_322.JPEG","n07744682/n07744682_6009.JPEG","n04451818/n04451818_16164.JPEG","n01503061/n01503061_13700.JPEG","n07739125/n07739125_3527.JPEG"],"trial_ID":39,"responses":["n07744682/n07744682_5571.JPEG","n07758680/n07758680_11861.JPEG","n07744559/n07744559_4872.JPEG","n07744559/n07744559_322.JPEG","n07744682/n07744682_6009.JPEG"],"rt":14683},{"internal_node_id":"0.0-7.0","time_elapsed":132762,"trial_index":7,"trial_type":"generalization","sample_node":"n03452741","trial_type2":"3_ex","condition":"subordinate_condition","nonsense_word":"canney","train_images":["n03452741/n03452741_17152.JPEG","n03452741/n03452741_6938.JPEG","n03452741/n03452741_290.JPEG"],"test_images":["n01503061/n01503061_17552.JPEG","n03249569/n03249569_20874.JPEG","n03405725/n03405725_36132.JPEG","n03405725/n03405725_18105.JPEG","n01503061/n01503061_239.JPEG","n13104059/n13104059_12631.JPEG","n03467517/n03467517_19609.JPEG","n02512053/n02512053_2583.JPEG","n01503061/n01503061_7526.JPEG","n03405725/n03405725_13521.JPEG","n03467517/n03467517_4144.JPEG","n04515003/n04515003_255.JPEG","n03051540/n03051540_10642.JPEG","n03452741/n03452741_2911.JPEG","n01503061/n01503061_5783.JPEG","n03051540/n03051540_51061.JPEG","n03467517/n03467517_5038.JPEG","n01503061/n01503061_3442.JPEG","n04515003/n04515003_518.JPEG","n01503061/n01503061_3115.JPEG","n01503061/n01503061_9938.JPEG","n03452741/n03452741_16378.JPEG","n13104059/n13104059_3144.JPEG","n03405725/n03405725_21781.JPEG"],"trial_ID":39,"responses":["n03249569/n03249569_20874.JPEG","n04515003/n04515003_518.JPEG","n03452741/n03452741_16378.JPEG"],"rt":20920},{"internal_node_id":"0.0-8.0","time_elapsed":145165,"trial_index":8,"trial_type":"generalization","sample_node":"n02587051","trial_type2":"3_ex","condition":"subordinate_condition","nonsense_word":"canney","train_images":["n02587051/n02587051_964.JPEG","n02587051/n02587051_1064.JPEG","n02587051/n02587051_491.JPEG"],"test_images":["n02534734/n02534734_8367.JPEG","n02534734/n02534734_6609.JPEG","n03051540/n03051540_4811.JPEG","n04524313/n04524313_4260.JPEG","n03405725/n03405725_8256.JPEG","n04524313/n04524313_179.JPEG","n03405725/n03405725_8077.JPEG","n04524313/n04524313_16704.JPEG","n02534734/n02534734_789.JPEG","n03800933/n03800933_17337.JPEG","n13134947/n13134947_13744.JPEG","n02587051/n02587051_811.JPEG","n02587300/n02587300_6468.JPEG","n03800933/n03800933_525.JPEG","n02587300/n02587300_7605.JPEG","n04451818/n04451818_11373.JPEG","n04524313/n04524313_4873.JPEG","n02534734/n02534734_2086.JPEG","n13134947/n13134947_12631.JPEG","n13134947/n13134947_3261.JPEG","n13134947/n13134947_3185.JPEG","n03405725/n03405725_28677.JPEG","n02587051/n02587051_218.JPEG","n04524313/n04524313_9693.JPEG"],"trial_ID":39,"responses":["n02534734/n02534734_8367.JPEG","n02587051/n02587051_811.JPEG","n02587051/n02587051_218.JPEG"],"rt":11319},{"internal_node_id":"0.0-9.0","time_elapsed":159058,"trial_index":9,"trial_type":"generalization","sample_node":"n02783035","trial_type2":"5_ex","condition":"subordinate_condition","nonsense_word":"canney","train_images":["n02783035/n02783035_1246.JPEG","n02783035/n02783035_265.JPEG","n02783035/n02783035_90.JPEG","n02783035/n02783035_1591.JPEG","n02783035/n02783035_174.JPEG"],"test_images":["n04154565/n04154565_977.JPEG","n13104059/n13104059_7303.JPEG","n03051540/n03051540_14032.JPEG","n01503061/n01503061_191.JPEG","n03800933/n03800933_4484.JPEG","n04524313/n04524313_1701.JPEG","n03800933/n03800933_6669.JPEG","n01503061/n01503061_9149.JPEG","n02512053/n02512053_4648.JPEG","n04524313/n04524313_3273.JPEG","n02966545/n02966545_4610.JPEG","n04524313/n04524313_2689.JPEG","n02966545/n02966545_2226.JPEG","n04524313/n04524313_1172.JPEG","n01503061/n01503061_18208.JPEG","n04140064/n04140064_9304.JPEG","n04140064/n04140064_7797.JPEG","n04524313/n04524313_10275.JPEG","n04524313/n04524313_3024.JPEG","n03051540/n03051540_8360.JPEG","n04154565/n04154565_12390.JPEG","n02783035/n02783035_1024.JPEG","n02512053/n02512053_2821.JPEG","n02783035/n02783035_551.JPEG"],"trial_ID":39,"responses":["n02966545/n02966545_4610.JPEG","n02783035/n02783035_1024.JPEG","n02783035/n02783035_551.JPEG"],"rt":12807}],"__v":0}
