{"_id":{"$oid":"591c8977803d090004bd99a3"},"data":[{"internal_node_id":"0.0-2.0","time_elapsed":20409,"trial_index":2,"trial_type":"generalization","sample_node":"n04467665","trial_type2":"5_ex","condition":"subordinate_condition","nonsense_word":"canney","train_images":["n04467665/n04467665_12049.JPEG","n04467665/n04467665_15994.JPEG","n04467665/n04467665_68250.JPEG","n04467665/n04467665_19269.JPEG","n04467665/n04467665_2626.JPEG"],"test_images":["n03051540/n03051540_52135.JPEG","n01503061/n01503061_14220.JPEG","n04467665/n04467665_5336.JPEG","n02512053/n02512053_11904.JPEG","n02691156/n02691156_15954.JPEG","n03930630/n03930630_2841.JPEG","n02512053/n02512053_1140.JPEG","n03405725/n03405725_17832.JPEG","n04467665/n04467665_3494.JPEG","n03800933/n03800933_14652.JPEG","n04451818/n04451818_22932.JPEG","n02691156/n02691156_8149.JPEG","n02691156/n02691156_1085.JPEG","n03405725/n03405725_34959.JPEG","n03930630/n03930630_13449.JPEG","n13134947/n13134947_4488.JPEG","n03800933/n03800933_7696.JPEG","n13134947/n13134947_5837.JPEG","n03800933/n03800933_22357.JPEG","n13134947/n13134947_5689.JPEG","n03800933/n03800933_8496.JPEG","n02512053/n02512053_10575.JPEG","n02958343/n02958343_5863.JPEG","n03405725/n03405725_26597.JPEG"],"trial_ID":15,"responses":["n04467665/n04467665_5336.JPEG"],"rt":13821},{"internal_node_id":"0.0-3.0","time_elapsed":30722,"trial_index":3,"trial_type":"generalization","sample_node":"n02752496","trial_type2":"3_ex","condition":"subordinate_condition","nonsense_word":"abroll","train_images":["n02752496/n02752496_8508.JPEG","n02752496/n02752496_7761.JPEG","n02752496/n02752496_8696.JPEG"],"test_images":["n04451818/n04451818_16676.JPEG","n04489008/n04489008_11712.JPEG","n03622931/n03622931_3029.JPEG","n13134947/n13134947_784.JPEG","n02752496/n02752496_3134.JPEG","n04197391/n04197391_2323.JPEG","n03405725/n03405725_27347.JPEG","n03622931/n03622931_11007.JPEG","n13134947/n13134947_2366.JPEG","n02752496/n02752496_4307.JPEG","n03405725/n03405725_16863.JPEG","n03405725/n03405725_12716.JPEG","n04451818/n04451818_6253.JPEG","n13134947/n13134947_2717.JPEG","n04489008/n04489008_1192.JPEG","n13104059/n13104059_3270.JPEG","n13104059/n13104059_11169.JPEG","n13134947/n13134947_3866.JPEG","n04451818/n04451818_23760.JPEG","n04489008/n04489008_20600.JPEG","n03405725/n03405725_9111.JPEG","n04451818/n04451818_7711.JPEG","n02512053/n02512053_6922.JPEG","n03405725/n03405725_4407.JPEG"],"trial_ID":15,"responses":["n03622931/n03622931_3029.JPEG","n02752496/n02752496_3134.JPEG","n02752496/n02752496_4307.JPEG"],"rt":9279},{"internal_node_id":"0.0-4.0","time_elapsed":43911,"trial_index":4,"trial_type":"generalization","sample_node":"n01614343","trial_type2":"1_ex","condition":"subordinate_condition","nonsense_word":"claine","train_images":["n01614343/n01614343_2607.JPEG"],"test_images":["n01621127/n01621127_16335.JPEG","n01614925/n01614925_6459.JPEG","n03800933/n03800933_20182.JPEG","n01621127/n01621127_16228.JPEG","n01621127/n01621127_11236.JPEG","n13134947/n13134947_4286.JPEG","n01614343/n01614343_1894.JPEG","n01614925/n01614925_12190.JPEG","n03405725/n03405725_27801.JPEG","n03800933/n03800933_3469.JPEG","n13134947/n13134947_13105.JPEG","n13134947/n13134947_7559.JPEG","n13134947/n13134947_5691.JPEG","n13134947/n13134947_6916.JPEG","n03800933/n03800933_27261.JPEG","n03800933/n03800933_27413.JPEG","n01614343/n01614343_2241.JPEG","n04451818/n04451818_138.JPEG","n13104059/n13104059_5709.JPEG","n13104059/n13104059_9973.JPEG","n01621127/n01621127_11444.JPEG","n13134947/n13134947_152.JPEG","n13104059/n13104059_2132.JPEG","n13134947/n13134947_5702.JPEG"],"trial_ID":15,"responses":["n01614925/n01614925_6459.JPEG","n01614343/n01614343_1894.JPEG","n01614343/n01614343_2241.JPEG"],"rt":11300},{"internal_node_id":"0.0-5.0","time_elapsed":54287,"trial_index":5,"trial_type":"generalization","sample_node":"n04379243","trial_type2":"3_ex","condition":"basic-level_condition","nonsense_word":"pomple","train_images":["n04379243/n04379243_25104.JPEG","n03620967/n03620967_1062.JPEG","n04379243/n04379243_19183.JPEG"],"test_images":["n13134947/n13134947_11015.JPEG","n03636248/n03636248_5923.JPEG","n03201035/n03201035_1873.JPEG","n02512053/n02512053_8174.JPEG","n03620967/n03620967_2570.JPEG","n03800933/n03800933_6108.JPEG","n02512053/n02512053_7873.JPEG","n03051540/n03051540_19067.JPEG","n04524313/n04524313_5829.JPEG","n01503061/n01503061_12461.JPEG","n03051540/n03051540_20153.JPEG","n03051540/n03051540_12486.JPEG","n03620967/n03620967_2839.JPEG","n03201035/n03201035_8481.JPEG","n03636248/n03636248_11154.JPEG","n04524313/n04524313_986.JPEG","n02512053/n02512053_11346.JPEG","n02512053/n02512053_10738.JPEG","n03800933/n03800933_20251.JPEG","n03800933/n03800933_21828.JPEG","n03001627/n03001627_4257.JPEG","n04524313/n04524313_1574.JPEG","n02512053/n02512053_10685.JPEG","n03636248/n03636248_14561.JPEG"],"trial_ID":15,"responses":["n03201035/n03201035_1873.JPEG","n03620967/n03620967_2839.JPEG","n03201035/n03201035_8481.JPEG","n03636248/n03636248_11154.JPEG"],"rt":9341},{"internal_node_id":"0.0-6.0","time_elapsed":65356,"trial_index":6,"trial_type":"generalization","sample_node":"n07758680","trial_type2":"3_ex","condition":"basic-level_condition","nonsense_word":"coloost","train_images":["n07758680/n07758680_11408.JPEG","n07760755/n07760755_2193.JPEG","n07758680/n07758680_8971.JPEG"],"test_images":["n07759194/n07759194_4679.JPEG","n07739125/n07739125_10066.JPEG","n04524313/n04524313_8671.JPEG","n02512053/n02512053_6809.JPEG","n04524313/n04524313_5298.JPEG","n04451818/n04451818_3940.JPEG","n04524313/n04524313_1985.JPEG","n03051540/n03051540_49220.JPEG","n07744246/n07744246_11368.JPEG","n03800933/n03800933_7479.JPEG","n04524313/n04524313_6527.JPEG","n01503061/n01503061_14426.JPEG","n07760755/n07760755_908.JPEG","n02512053/n02512053_5168.JPEG","n13104059/n13104059_13270.JPEG","n07744246/n07744246_7162.JPEG","n01503061/n01503061_10633.JPEG","n03051540/n03051540_30598.JPEG","n04524313/n04524313_4472.JPEG","n07744246/n07744246_9977.JPEG","n07759194/n07759194_145.JPEG","n13104059/n13104059_13880.JPEG","n07760755/n07760755_705.JPEG","n01503061/n01503061_1996.JPEG"],"trial_ID":15,"responses":["n07744246/n07744246_11368.JPEG","n07760755/n07760755_908.JPEG","n07744246/n07744246_7162.JPEG","n07744246/n07744246_9977.JPEG","n07759194/n07759194_145.JPEG","n07760755/n07760755_705.JPEG"],"rt":10031},{"internal_node_id":"0.0-7.0","time_elapsed":77756,"trial_index":7,"trial_type":"generalization","sample_node":"n04387400","trial_type2":"1_ex","condition":"subordinate_condition","nonsense_word":"aftion","train_images":["n04387400/n04387400_4949.JPEG"],"test_images":["n13104059/n13104059_4627.JPEG","n03467517/n03467517_17292.JPEG","n03405725/n03405725_3804.JPEG","n04451818/n04451818_2158.JPEG","n02803666/n02803666_16323.JPEG","n04451818/n04451818_7019.JPEG","n01503061/n01503061_14426.JPEG","n04387400/n04387400_9558.JPEG","n13134947/n13134947_4642.JPEG","n03405725/n03405725_14949.JPEG","n01503061/n01503061_9907.JPEG","n03467517/n03467517_14895.JPEG","n01503061/n01503061_9953.JPEG","n04387400/n04387400_5936.JPEG","n02803666/n02803666_774.JPEG","n13134947/n13134947_6175.JPEG","n03405725/n03405725_1480.JPEG","n03467517/n03467517_17583.JPEG","n13104059/n13104059_4368.JPEG","n03467517/n03467517_23315.JPEG","n13104059/n13104059_2268.JPEG","n01503061/n01503061_10695.JPEG","n13104059/n13104059_8998.JPEG","n13104059/n13104059_4801.JPEG"],"trial_ID":15,"responses":["n04451818/n04451818_7019.JPEG"],"rt":11367},{"internal_node_id":"0.0-8.0","time_elapsed":114030,"trial_index":8,"trial_type":"generalization","sample_node":"n02535537","trial_type2":"3_ex","condition":"subordinate_condition","nonsense_word":"rephan","train_images":["n02535537/n02535537_12222.JPEG","n02535537/n02535537_14753.JPEG","n02535537/n02535537_17022.JPEG"],"test_images":["n02535537/n02535537_15512.JPEG","n03405725/n03405725_9592.JPEG","n02536456/n02536456_4803.JPEG","n03405725/n03405725_1713.JPEG","n02536456/n02536456_1129.JPEG","n02586543/n02586543_12847.JPEG","n13134947/n13134947_3877.JPEG","n03800933/n03800933_2460.JPEG","n03800933/n03800933_18457.JPEG","n02586543/n02586543_3663.JPEG","n03051540/n03051540_8840.JPEG","n04524313/n04524313_568.JPEG","n03051540/n03051540_55656.JPEG","n03800933/n03800933_6478.JPEG","n02586543/n02586543_6516.JPEG","n03051540/n03051540_60189.JPEG","n02586543/n02586543_628.JPEG","n03051540/n03051540_12865.JPEG","n04524313/n04524313_8936.JPEG","n03800933/n03800933_14694.JPEG","n04524313/n04524313_8811.JPEG","n03405725/n03405725_8728.JPEG","n03405725/n03405725_2793.JPEG","n02535537/n02535537_389.JPEG"],"trial_ID":15,"responses":["n02536456/n02536456_4803.JPEG","n02536456/n02536456_1129.JPEG","n02586543/n02586543_12847.JPEG","n02586543/n02586543_3663.JPEG","n02586543/n02586543_6516.JPEG","n02586543/n02586543_628.JPEG","n02535537/n02535537_389.JPEG"],"rt":35211},{"internal_node_id":"0.0-9.0","time_elapsed":132020,"trial_index":9,"trial_type":"generalization","sample_node":"n03361683","trial_type2":"1_ex","condition":"subordinate_condition","nonsense_word":"stuyer","train_images":["n03361683/n03361683_507.JPEG"],"test_images":["n03800933/n03800933_2620.JPEG","n01503061/n01503061_11899.JPEG","n01503061/n01503061_657.JPEG","n04140064/n04140064_14634.JPEG","n01503061/n01503061_13020.JPEG","n01503061/n01503061_9869.JPEG","n13104059/n13104059_12174.JPEG","n03051540/n03051540_20245.JPEG","n03405725/n03405725_2692.JPEG","n03405725/n03405725_3119.JPEG","n04140064/n04140064_14009.JPEG","n03923692/n03923692_818.JPEG","n03051540/n03051540_8806.JPEG","n13104059/n13104059_578.JPEG","n03923692/n03923692_1086.JPEG","n13134947/n13134947_7474.JPEG","n03361683/n03361683_477.JPEG","n04140064/n04140064_9375.JPEG","n03051540/n03051540_20785.JPEG","n03051540/n03051540_52987.JPEG","n03361683/n03361683_346.JPEG","n13104059/n13104059_14998.JPEG","n03800933/n03800933_20734.JPEG","n03481172/n03481172_28434.JPEG"],"trial_ID":15,"responses":["n03923692/n03923692_818.JPEG","n03923692/n03923692_1086.JPEG","n03361683/n03361683_477.JPEG","n03361683/n03361683_346.JPEG"],"rt":16217}],"__v":0}
{"_id":{"$oid":"591c897d803d090004bd99a4"},"data":[{"internal_node_id":"0.0-2.0","time_elapsed":30817,"trial_index":2,"trial_type":"generalization","sample_node":"n04467665","trial_type2":"10_ex","condition":"subordinate_condition","nonsense_word":"coloost","train_images":["n04467665/n04467665_68250.JPEG","n04467665/n04467665_12049.JPEG","n04467665/n04467665_43935.JPEG","n04467665/n04467665_19269.JPEG","n04467665/n04467665_25157.JPEG","n04467665/n04467665_2626.JPEG","n04467665/n04467665_68486.JPEG","n04467665/n04467665_21969.JPEG","n04467665/n04467665_47.JPEG","n04467665/n04467665_15994.JPEG"],"test_images":["n02512053/n02512053_10575.JPEG","n13134947/n13134947_5837.JPEG","n02958343/n02958343_5863.JPEG","n04467665/n04467665_3494.JPEG","n13134947/n13134947_4488.JPEG","n02512053/n02512053_11904.JPEG","n02691156/n02691156_8149.JPEG","n03800933/n03800933_7696.JPEG","n03800933/n03800933_14652.JPEG","n03051540/n03051540_52135.JPEG","n02512053/n02512053_1140.JPEG","n02691156/n02691156_1085.JPEG","n01503061/n01503061_14220.JPEG","n13134947/n13134947_5689.JPEG","n02691156/n02691156_15954.JPEG","n03930630/n03930630_13449.JPEG","n03800933/n03800933_8496.JPEG","n04451818/n04451818_22932.JPEG","n03405725/n03405725_26597.JPEG","n04467665/n04467665_5336.JPEG","n03405725/n03405725_34959.JPEG","n03930630/n03930630_2841.JPEG","n03800933/n03800933_22357.JPEG","n03405725/n03405725_17832.JPEG"],"trial_ID":13,"responses":["n04467665/n04467665_3494.JPEG","n04467665/n04467665_5336.JPEG"],"rt":22769},{"internal_node_id":"0.0-3.0","time_elapsed":42222,"trial_index":3,"trial_type":"generalization","sample_node":"n04370288","trial_type2":"10_ex","condition":"subordinate_condition","nonsense_word":"stuyer","train_images":["n04370288/n04370288_178.JPEG","n04370288/n04370288_327.JPEG","n04370288/n04370288_600.JPEG","n04370288/n04370288_3948.JPEG","n04370288/n04370288_12191.JPEG","n04370288/n04370288_839.JPEG","n04370288/n04370288_8927.JPEG","n04370288/n04370288_3760.JPEG","n04370288/n04370288_1301.JPEG","n04370288/n04370288_13105.JPEG"],"test_images":["n04197391/n04197391_815.JPEG","n04370288/n04370288_3473.JPEG","n03405725/n03405725_27347.JPEG","n03405725/n03405725_4407.JPEG","n03405725/n03405725_9111.JPEG","n04451818/n04451818_7711.JPEG","n02512053/n02512053_6922.JPEG","n13134947/n13134947_784.JPEG","n03594734/n03594734_34549.JPEG","n04254777/n04254777_4537.JPEG","n13134947/n13134947_2366.JPEG","n04254777/n04254777_5810.JPEG","n03405725/n03405725_12716.JPEG","n03405725/n03405725_16863.JPEG","n13134947/n13134947_3866.JPEG","n04451818/n04451818_23760.JPEG","n04451818/n04451818_6253.JPEG","n03594734/n03594734_36809.JPEG","n04370288/n04370288_8206.JPEG","n04451818/n04451818_16676.JPEG","n13104059/n13104059_3270.JPEG","n13134947/n13134947_2717.JPEG","n04197391/n04197391_6908.JPEG","n13104059/n13104059_11169.JPEG"],"trial_ID":13,"responses":["n04370288/n04370288_3473.JPEG","n04370288/n04370288_8206.JPEG"],"rt":10389},{"internal_node_id":"0.0-4.0","time_elapsed":66236,"trial_index":4,"trial_type":"generalization","sample_node":"n01536186","trial_type2":"10_ex","condition":"subordinate_condition","nonsense_word":"canney","train_images":["n01536186/n01536186_560.JPEG","n01536186/n01536186_5184.JPEG","n01536186/n01536186_2672.JPEG","n01536186/n01536186_1398.JPEG","n01536186/n01536186_2224.JPEG","n01536186/n01536186_2170.JPEG","n01536186/n01536186_4154.JPEG","n01536186/n01536186_377.JPEG","n01536186/n01536186_433.JPEG","n01536186/n01536186_5222.JPEG"],"test_images":["n01613294/n01613294_2527.JPEG","n13134947/n13134947_6916.JPEG","n01536186/n01536186_4599.JPEG","n03800933/n03800933_3469.JPEG","n13134947/n13134947_7559.JPEG","n03800933/n03800933_27261.JPEG","n13134947/n13134947_5702.JPEG","n01536186/n01536186_5493.JPEG","n13104059/n13104059_9973.JPEG","n13104059/n13104059_2132.JPEG","n13134947/n13134947_152.JPEG","n01613294/n01613294_679.JPEG","n03405725/n03405725_27801.JPEG","n13104059/n13104059_5709.JPEG","n04451818/n04451818_138.JPEG","n13134947/n13134947_4286.JPEG","n01536644/n01536644_2231.JPEG","n01621127/n01621127_18114.JPEG","n03800933/n03800933_27413.JPEG","n01536644/n01536644_9091.JPEG","n13134947/n13134947_5691.JPEG","n13134947/n13134947_13105.JPEG","n01621127/n01621127_18408.JPEG","n03800933/n03800933_20182.JPEG"],"trial_ID":13,"responses":["n01536186/n01536186_4599.JPEG","n01536186/n01536186_5493.JPEG","n01536644/n01536644_2231.JPEG","n01621127/n01621127_18114.JPEG","n01536644/n01536644_9091.JPEG"],"rt":22998},{"internal_node_id":"0.0-5.0","time_elapsed":79519,"trial_index":5,"trial_type":"generalization","sample_node":"n03620967","trial_type2":"3_ex","condition":"subordinate_condition","nonsense_word":"rephan","train_images":["n03620967/n03620967_319.JPEG","n03620967/n03620967_366.JPEG","n03620967/n03620967_1062.JPEG"],"test_images":["n04524313/n04524313_5829.JPEG","n03636248/n03636248_11154.JPEG","n02512053/n02512053_8174.JPEG","n03636248/n03636248_5923.JPEG","n03620967/n03620967_2839.JPEG","n01503061/n01503061_12461.JPEG","n03800933/n03800933_20251.JPEG","n03051540/n03051540_19067.JPEG","n03051540/n03051540_20153.JPEG","n03636248/n03636248_14561.JPEG","n13134947/n13134947_11015.JPEG","n03051540/n03051540_12486.JPEG","n04524313/n04524313_986.JPEG","n02512053/n02512053_10738.JPEG","n02512053/n02512053_10685.JPEG","n03800933/n03800933_21828.JPEG","n03001627/n03001627_4257.JPEG","n03620967/n03620967_2570.JPEG","n04524313/n04524313_1574.JPEG","n03201035/n03201035_8481.JPEG","n02512053/n02512053_11346.JPEG","n02512053/n02512053_7873.JPEG","n03201035/n03201035_1873.JPEG","n03800933/n03800933_6108.JPEG"],"trial_ID":13,"responses":["n03636248/n03636248_11154.JPEG","n03620967/n03620967_2839.JPEG","n03620967/n03620967_2570.JPEG","n03201035/n03201035_8481.JPEG","n03201035/n03201035_1873.JPEG"],"rt":12268},{"internal_node_id":"0.0-6.0","time_elapsed":89694,"trial_index":6,"trial_type":"generalization","sample_node":"n07759194","trial_type2":"10_ex","condition":"subordinate_condition","nonsense_word":"aftion","train_images":["n07759194/n07759194_5186.JPEG","n07759194/n07759194_573.JPEG","n07759194/n07759194_3724.JPEG","n07759194/n07759194_4976.JPEG","n07759194/n07759194_545.JPEG","n07759194/n07759194_6511.JPEG","n07759194/n07759194_5654.JPEG","n07759194/n07759194_3667.JPEG","n07759194/n07759194_791.JPEG","n07759194/n07759194_5293.JPEG"],"test_images":["n03051540/n03051540_30598.JPEG","n07744246/n07744246_11368.JPEG","n04524313/n04524313_8671.JPEG","n07739125/n07739125_10066.JPEG","n02512053/n02512053_5168.JPEG","n04524313/n04524313_4472.JPEG","n04451818/n04451818_3940.JPEG","n07760755/n07760755_2656.JPEG","n07759194/n07759194_4202.JPEG","n13104059/n13104059_13880.JPEG","n01503061/n01503061_14426.JPEG","n03800933/n03800933_7479.JPEG","n03051540/n03051540_49220.JPEG","n04524313/n04524313_1985.JPEG","n13104059/n13104059_13270.JPEG","n07744246/n07744246_9977.JPEG","n01503061/n01503061_1996.JPEG","n07744246/n07744246_7162.JPEG","n01503061/n01503061_10633.JPEG","n04524313/n04524313_5298.JPEG","n02512053/n02512053_6809.JPEG","n07760755/n07760755_737.JPEG","n07759194/n07759194_3152.JPEG","n04524313/n04524313_6527.JPEG"],"trial_ID":13,"responses":["n07760755/n07760755_2656.JPEG","n07759194/n07759194_4202.JPEG","n07759194/n07759194_3152.JPEG"],"rt":9160},{"internal_node_id":"0.0-7.0","time_elapsed":104830,"trial_index":7,"trial_type":"generalization","sample_node":"n03272010","trial_type2":"1_ex","condition":"subordinate_condition","nonsense_word":"pomple","train_images":["n03272010/n03272010_5019.JPEG"],"test_images":["n02676566/n02676566_4373.JPEG","n03272010/n03272010_176.JPEG","n04451818/n04451818_2158.JPEG","n03405725/n03405725_14949.JPEG","n04451818/n04451818_7019.JPEG","n13104059/n13104059_4627.JPEG","n01503061/n01503061_10695.JPEG","n13134947/n13134947_6175.JPEG","n03405725/n03405725_1480.JPEG","n13134947/n13134947_4642.JPEG","n01503061/n01503061_14426.JPEG","n01503061/n01503061_9953.JPEG","n03405725/n03405725_3804.JPEG","n03249569/n03249569_34879.JPEG","n13104059/n13104059_4368.JPEG","n01503061/n01503061_9907.JPEG","n03928116/n03928116_9344.JPEG","n03249569/n03249569_28995.JPEG","n03272010/n03272010_1400.JPEG","n13104059/n13104059_4801.JPEG","n02676566/n02676566_5735.JPEG","n03249569/n03249569_37625.JPEG","n13104059/n13104059_2268.JPEG","n13104059/n13104059_8998.JPEG"],"trial_ID":13,"responses":["n03272010/n03272010_176.JPEG","n03272010/n03272010_1400.JPEG","n02676566/n02676566_5735.JPEG"],"rt":14119},{"internal_node_id":"0.0-8.0","time_elapsed":118815,"trial_index":8,"trial_type":"generalization","sample_node":"n02536456","trial_type2":"3_ex","condition":"subordinate_condition","nonsense_word":"abroll","train_images":["n02536456/n02536456_11336.JPEG","n02536456/n02536456_10360.JPEG","n02536456/n02536456_3641.JPEG"],"test_images":["n03405725/n03405725_9592.JPEG","n03800933/n03800933_2460.JPEG","n02586543/n02586543_3663.JPEG","n02586543/n02586543_628.JPEG","n03800933/n03800933_6478.JPEG","n03051540/n03051540_60189.JPEG","n02535537/n02535537_364.JPEG","n02536456/n02536456_7568.JPEG","n03051540/n03051540_55656.JPEG","n04524313/n04524313_8811.JPEG","n03800933/n03800933_18457.JPEG","n04524313/n04524313_568.JPEG","n03051540/n03051540_8840.JPEG","n02586543/n02586543_6516.JPEG","n03051540/n03051540_12865.JPEG","n03405725/n03405725_8728.JPEG","n03405725/n03405725_2793.JPEG","n02586543/n02586543_12847.JPEG","n03405725/n03405725_1713.JPEG","n04524313/n04524313_8936.JPEG","n13134947/n13134947_3877.JPEG","n03800933/n03800933_14694.JPEG","n02536456/n02536456_9519.JPEG","n02535537/n02535537_15087.JPEG"],"trial_ID":13,"responses":["n02536456/n02536456_7568.JPEG"],"rt":12969},{"internal_node_id":"0.0-9.0","time_elapsed":141752,"trial_index":9,"trial_type":"generalization","sample_node":"n03136504","trial_type2":"3_ex","condition":"subordinate_condition","nonsense_word":"claine","train_images":["n03136504/n03136504_3427.JPEG","n03136504/n03136504_8469.JPEG","n03136504/n03136504_7599.JPEG"],"test_images":["n04154565/n04154565_18488.JPEG","n03405725/n03405725_3119.JPEG","n03051540/n03051540_52987.JPEG","n03405725/n03405725_2692.JPEG","n03474779/n03474779_15434.JPEG","n13134947/n13134947_7474.JPEG","n03800933/n03800933_20734.JPEG","n03136504/n03136504_1095.JPEG","n03051540/n03051540_20245.JPEG","n13104059/n13104059_12174.JPEG","n03474779/n03474779_14845.JPEG","n03051540/n03051540_20785.JPEG","n01503061/n01503061_657.JPEG","n01503061/n01503061_9869.JPEG","n03800933/n03800933_2620.JPEG","n13104059/n13104059_578.JPEG","n03136504/n03136504_6549.JPEG","n03481172/n03481172_1311.JPEG","n03051540/n03051540_8806.JPEG","n04154565/n04154565_18235.JPEG","n03481172/n03481172_13906.JPEG","n01503061/n01503061_13020.JPEG","n13104059/n13104059_14998.JPEG","n01503061/n01503061_11899.JPEG"],"trial_ID":13,"responses":["n03136504/n03136504_1095.JPEG","n03136504/n03136504_6549.JPEG"],"rt":21923}],"__v":0}
{"_id":{"$oid":"591c8981803d090004bd99a5"},"data":[{"internal_node_id":"0.0-2.0","time_elapsed":16599,"trial_index":2,"trial_type":"generalization","sample_node":"n03335030","trial_type2":"5_ex","condition":"subordinate_condition","nonsense_word":"stuyer","train_images":["n03335030/n03335030_25811.JPEG","n03335030/n03335030_13540.JPEG","n03335030/n03335030_24385.JPEG","n03335030/n03335030_15568.JPEG","n03335030/n03335030_6139.JPEG"],"test_images":["n04490091/n04490091_16210.JPEG","n04490091/n04490091_3864.JPEG","n04451818/n04451818_22932.JPEG","n02690373/n02690373_3986.JPEG","n13134947/n13134947_4488.JPEG","n02512053/n02512053_11904.JPEG","n02512053/n02512053_10575.JPEG","n04490091/n04490091_27269.JPEG","n02690373/n02690373_1411.JPEG","n01503061/n01503061_14220.JPEG","n03405725/n03405725_26597.JPEG","n04490091/n04490091_19855.JPEG","n03800933/n03800933_14652.JPEG","n03051540/n03051540_52135.JPEG","n03800933/n03800933_7696.JPEG","n03405725/n03405725_17832.JPEG","n02512053/n02512053_1140.JPEG","n03405725/n03405725_34959.JPEG","n03800933/n03800933_22357.JPEG","n13134947/n13134947_5689.JPEG","n03335030/n03335030_9574.JPEG","n03800933/n03800933_8496.JPEG","n03335030/n03335030_28648.JPEG","n13134947/n13134947_5837.JPEG"],"trial_ID":62,"responses":["n02690373/n02690373_3986.JPEG","n02690373/n02690373_1411.JPEG","n03335030/n03335030_9574.JPEG"],"rt":12126},{"internal_node_id":"0.0-3.0","time_elapsed":25497,"trial_index":3,"trial_type":"generalization","sample_node":"n03622931","trial_type2":"5_ex","condition":"subordinate_condition","nonsense_word":"rephan","train_images":["n03622931/n03622931_7169.JPEG","n03622931/n03622931_12430.JPEG","n03622931/n03622931_9880.JPEG","n03622931/n03622931_13496.JPEG","n03622931/n03622931_11390.JPEG"],"test_images":["n03405725/n03405725_9111.JPEG","n03405725/n03405725_4407.JPEG","n13104059/n13104059_11169.JPEG","n03405725/n03405725_12716.JPEG","n04489008/n04489008_11712.JPEG","n03405725/n03405725_27347.JPEG","n02752496/n02752496_4812.JPEG","n02512053/n02512053_6922.JPEG","n02752496/n02752496_8557.JPEG","n04197391/n04197391_2323.JPEG","n03405725/n03405725_16863.JPEG","n04489008/n04489008_1192.JPEG","n04451818/n04451818_7711.JPEG","n03622931/n03622931_10061.JPEG","n04451818/n04451818_6253.JPEG","n03622931/n03622931_13232.JPEG","n13134947/n13134947_2366.JPEG","n04451818/n04451818_23760.JPEG","n13134947/n13134947_2717.JPEG","n04451818/n04451818_16676.JPEG","n04489008/n04489008_20600.JPEG","n13134947/n13134947_3866.JPEG","n13104059/n13104059_3270.JPEG","n13134947/n13134947_784.JPEG"],"trial_ID":62,"responses":["n03622931/n03622931_13232.JPEG"],"rt":7876},{"internal_node_id":"0.0-4.0","time_elapsed":32502,"trial_index":4,"trial_type":"generalization","sample_node":"n01614925","trial_type2":"10_ex","condition":"subordinate_condition","nonsense_word":"pomple","train_images":["n01614925/n01614925_2515.JPEG","n01614925/n01614925_8500.JPEG","n01614925/n01614925_17026.JPEG","n01614925/n01614925_15222.JPEG","n01614925/n01614925_13310.JPEG","n01614925/n01614925_15655.JPEG","n01614925/n01614925_5534.JPEG","n01614925/n01614925_1243.JPEG","n01614925/n01614925_8673.JPEG","n01614925/n01614925_2636.JPEG"],"test_images":["n01621127/n01621127_16335.JPEG","n13134947/n13134947_5691.JPEG","n03800933/n03800933_20182.JPEG","n13134947/n13134947_5702.JPEG","n13134947/n13134947_7559.JPEG","n03800933/n03800933_27413.JPEG","n01614925/n01614925_1809.JPEG","n13134947/n13134947_152.JPEG","n13104059/n13104059_9973.JPEG","n13134947/n13134947_4286.JPEG","n01614925/n01614925_2474.JPEG","n03800933/n03800933_3469.JPEG","n01621127/n01621127_16228.JPEG","n03800933/n03800933_27261.JPEG","n01621127/n01621127_11444.JPEG","n01614343/n01614343_5961.JPEG","n01614343/n01614343_6322.JPEG","n13134947/n13134947_6916.JPEG","n03405725/n03405725_27801.JPEG","n13104059/n13104059_5709.JPEG","n13104059/n13104059_2132.JPEG","n13134947/n13134947_13105.JPEG","n01621127/n01621127_11236.JPEG","n04451818/n04451818_138.JPEG"],"trial_ID":62,"responses":[],"rt":5968},{"internal_node_id":"0.0-5.0","time_elapsed":48598,"trial_index":5,"trial_type":"generalization","sample_node":"n02738535","trial_type2":"5_ex","condition":"subordinate_condition","nonsense_word":"canney","train_images":["n02738535/n02738535_8311.JPEG","n02738535/n02738535_20801.JPEG","n02738535/n02738535_2039.JPEG","n02738535/n02738535_1321.JPEG","n02738535/n02738535_12764.JPEG"],"test_images":["n02512053/n02512053_10685.JPEG","n04524313/n04524313_986.JPEG","n04331277/n04331277_7583.JPEG","n13134947/n13134947_11015.JPEG","n03800933/n03800933_6108.JPEG","n03051540/n03051540_12486.JPEG","n03636248/n03636248_558.JPEG","n03636248/n03636248_11082.JPEG","n03051540/n03051540_19067.JPEG","n04524313/n04524313_5829.JPEG","n03800933/n03800933_20251.JPEG","n04331277/n04331277_1009.JPEG","n02512053/n02512053_11346.JPEG","n03051540/n03051540_20153.JPEG","n02738535/n02738535_9375.JPEG","n03800933/n03800933_21828.JPEG","n04524313/n04524313_1574.JPEG","n04379243/n04379243_24328.JPEG","n01503061/n01503061_12461.JPEG","n02512053/n02512053_8174.JPEG","n02512053/n02512053_10738.JPEG","n04379243/n04379243_6202.JPEG","n02738535/n02738535_3330.JPEG","n02512053/n02512053_7873.JPEG"],"trial_ID":62,"responses":["n04331277/n04331277_7583.JPEG","n04331277/n04331277_1009.JPEG","n02738535/n02738535_9375.JPEG","n02738535/n02738535_3330.JPEG"],"rt":15071},{"internal_node_id":"0.0-6.0","time_elapsed":65204,"trial_index":6,"trial_type":"generalization","sample_node":"n07740954","trial_type2":"1_ex","condition":"subordinate_condition","nonsense_word":"aftion","train_images":["n07740954/n07740954_10820.JPEG"],"test_images":["n07740954/n07740954_13847.JPEG","n04524313/n04524313_5298.JPEG","n13104059/n13104059_13880.JPEG","n04524313/n04524313_6527.JPEG","n07740220/n07740220_13228.JPEG","n01503061/n01503061_10633.JPEG","n03051540/n03051540_49220.JPEG","n04524313/n04524313_4472.JPEG","n07740954/n07740954_22120.JPEG","n07758680/n07758680_14751.JPEG","n02512053/n02512053_5168.JPEG","n07758680/n07758680_14325.JPEG","n01503061/n01503061_14426.JPEG","n03800933/n03800933_7479.JPEG","n07758680/n07758680_12759.JPEG","n07744246/n07744246_5514.JPEG","n01503061/n01503061_1996.JPEG","n04524313/n04524313_8671.JPEG","n02512053/n02512053_6809.JPEG","n07740220/n07740220_6179.JPEG","n03051540/n03051540_30598.JPEG","n13104059/n13104059_13270.JPEG","n04451818/n04451818_3940.JPEG","n04524313/n04524313_1985.JPEG"],"trial_ID":62,"responses":["n07740954/n07740954_13847.JPEG","n07740220/n07740220_13228.JPEG","n07740954/n07740954_22120.JPEG","n07744246/n07744246_5514.JPEG","n07740220/n07740220_6179.JPEG"],"rt":15584},{"internal_node_id":"0.0-7.0","time_elapsed":71799,"trial_index":7,"trial_type":"generalization","sample_node":"n04515003","trial_type2":"3_ex","condition":"subordinate_condition","nonsense_word":"coloost","train_images":["n04515003/n04515003_30002.JPEG","n04515003/n04515003_7944.JPEG","n04515003/n04515003_33133.JPEG"],"test_images":["n01503061/n01503061_14426.JPEG","n03405725/n03405725_3804.JPEG","n01503061/n01503061_9907.JPEG","n01503061/n01503061_10695.JPEG","n03405725/n03405725_14949.JPEG","n03249569/n03249569_17404.JPEG","n13134947/n13134947_4642.JPEG","n04515003/n04515003_3561.JPEG","n03452741/n03452741_6782.JPEG","n01503061/n01503061_9953.JPEG","n04451818/n04451818_2158.JPEG","n13104059/n13104059_2268.JPEG","n03452741/n03452741_12397.JPEG","n13104059/n13104059_8998.JPEG","n03249569/n03249569_30494.JPEG","n04451818/n04451818_7019.JPEG","n13104059/n13104059_4801.JPEG","n13104059/n13104059_4368.JPEG","n13134947/n13134947_6175.JPEG","n03249569/n03249569_9327.JPEG","n03467517/n03467517_15732.JPEG","n13104059/n13104059_4627.JPEG","n03405725/n03405725_1480.JPEG","n04515003/n04515003_36320.JPEG"],"trial_ID":62,"responses":["n04515003/n04515003_3561.JPEG","n04515003/n04515003_36320.JPEG"],"rt":5571},{"internal_node_id":"0.0-8.0","time_elapsed":79462,"trial_index":8,"trial_type":"generalization","sample_node":"n02534734","trial_type2":"3_ex","condition":"basic-level_condition","nonsense_word":"claine","train_images":["n02536456/n02536456_3641.JPEG","n02534734/n02534734_8904.JPEG","n02534734/n02534734_14338.JPEG"],"test_images":["n02586543/n02586543_12847.JPEG","n03405725/n03405725_1713.JPEG","n02586543/n02586543_628.JPEG","n02535537/n02535537_15087.JPEG","n04524313/n04524313_8936.JPEG","n02536456/n02536456_7568.JPEG","n03800933/n03800933_18457.JPEG","n03405725/n03405725_9592.JPEG","n03051540/n03051540_55656.JPEG","n04524313/n04524313_568.JPEG","n03051540/n03051540_8840.JPEG","n02586543/n02586543_3663.JPEG","n02535537/n02535537_364.JPEG","n03800933/n03800933_2460.JPEG","n03800933/n03800933_14694.JPEG","n02586543/n02586543_6516.JPEG","n13134947/n13134947_3877.JPEG","n04524313/n04524313_8811.JPEG","n03051540/n03051540_60189.JPEG","n02536456/n02536456_9519.JPEG","n03051540/n03051540_12865.JPEG","n03405725/n03405725_8728.JPEG","n03800933/n03800933_6478.JPEG","n03405725/n03405725_2793.JPEG"],"trial_ID":62,"responses":["n02536456/n02536456_7568.JPEG"],"rt":6633},{"internal_node_id":"0.0-9.0","time_elapsed":88815,"trial_index":9,"trial_type":"generalization","sample_node":"n03481172","trial_type2":"10_ex","condition":"basic-level_condition","nonsense_word":"abroll","train_images":["n03481172/n03481172_3730.JPEG","n03481172/n03481172_16388.JPEG","n03481172/n03481172_5839.JPEG","n03481172/n03481172_14247.JPEG","n03481172/n03481172_551.JPEG","n03481172/n03481172_3889.JPEG","n02783035/n02783035_1451.JPEG","n03481172/n03481172_30708.JPEG","n03481172/n03481172_10797.JPEG","n03481172/n03481172_11123.JPEG"],"test_images":["n03800933/n03800933_2620.JPEG","n04140064/n04140064_10299.JPEG","n13104059/n13104059_578.JPEG","n01503061/n01503061_11899.JPEG","n01503061/n01503061_657.JPEG","n01503061/n01503061_13020.JPEG","n03051540/n03051540_52987.JPEG","n02966545/n02966545_4613.JPEG","n03405725/n03405725_3119.JPEG","n04154565/n04154565_5055.JPEG","n02783035/n02783035_1352.JPEG","n03800933/n03800933_20734.JPEG","n01503061/n01503061_9869.JPEG","n13104059/n13104059_12174.JPEG","n03051540/n03051540_20245.JPEG","n02966545/n02966545_8273.JPEG","n03051540/n03051540_20785.JPEG","n04140064/n04140064_19018.JPEG","n04154565/n04154565_12843.JPEG","n13134947/n13134947_7474.JPEG","n13104059/n13104059_14998.JPEG","n03051540/n03051540_8806.JPEG","n02783035/n02783035_1579.JPEG","n03405725/n03405725_2692.JPEG"],"trial_ID":62,"responses":["n02966545/n02966545_4613.JPEG","n02783035/n02783035_1352.JPEG","n02966545/n02966545_8273.JPEG","n02783035/n02783035_1579.JPEG"],"rt":8326}],"__v":0}
{"_id":{"$oid":"591c898a803d090004bd99a6"},"data":[{"internal_node_id":"0.0-2.0","time_elapsed":33900,"trial_index":2,"trial_type":"generalization","sample_node":"n03930630","trial_type2":"3_ex","condition":"subordinate_condition","nonsense_word":"coloost","train_images":["n03930630/n03930630_10328.JPEG","n03930630/n03930630_2.JPEG","n03930630/n03930630_13240.JPEG"],"test_images":["n02512053/n02512053_10575.JPEG","n03051540/n03051540_52135.JPEG","n03405725/n03405725_34959.JPEG","n02691156/n02691156_1085.JPEG","n02691156/n02691156_8149.JPEG","n03930630/n03930630_5531.JPEG","n02958343/n02958343_5863.JPEG","n01503061/n01503061_14220.JPEG","n04467665/n04467665_16045.JPEG","n03800933/n03800933_14652.JPEG","n03800933/n03800933_22357.JPEG","n03405725/n03405725_17832.JPEG","n04451818/n04451818_22932.JPEG","n03930630/n03930630_2987.JPEG","n02691156/n02691156_15954.JPEG","n13134947/n13134947_5837.JPEG","n13134947/n13134947_4488.JPEG","n03405725/n03405725_26597.JPEG","n03800933/n03800933_8496.JPEG","n02512053/n02512053_11904.JPEG","n13134947/n13134947_5689.JPEG","n04467665/n04467665_22600.JPEG","n02512053/n02512053_1140.JPEG","n03800933/n03800933_7696.JPEG"],"trial_ID":16,"responses":["n03930630/n03930630_5531.JPEG","n03930630/n03930630_2987.JPEG","n04467665/n04467665_22600.JPEG"],"rt":23682},{"internal_node_id":"0.0-3.0","time_elapsed":46101,"trial_index":3,"trial_type":"generalization","sample_node":"n03622931","trial_type2":"10_ex","condition":"subordinate_condition","nonsense_word":"canney","train_images":["n03622931/n03622931_13496.JPEG","n03622931/n03622931_5897.JPEG","n03622931/n03622931_12430.JPEG","n03622931/n03622931_7169.JPEG","n03622931/n03622931_7404.JPEG","n03622931/n03622931_9880.JPEG","n03622931/n03622931_11390.JPEG","n03622931/n03622931_10255.JPEG","n03622931/n03622931_7005.JPEG","n03622931/n03622931_8360.JPEG"],"test_images":["n13134947/n13134947_2366.JPEG","n04451818/n04451818_7711.JPEG","n13104059/n13104059_11169.JPEG","n02752496/n02752496_8557.JPEG","n13134947/n13134947_3866.JPEG","n04197391/n04197391_2323.JPEG","n03622931/n03622931_10061.JPEG","n04451818/n04451818_23760.JPEG","n03405725/n03405725_12716.JPEG","n04489008/n04489008_20600.JPEG","n04489008/n04489008_11712.JPEG","n13134947/n13134947_2717.JPEG","n04489008/n04489008_1192.JPEG","n03405725/n03405725_9111.JPEG","n03622931/n03622931_13232.JPEG","n04451818/n04451818_6253.JPEG","n03405725/n03405725_27347.JPEG","n02512053/n02512053_6922.JPEG","n03405725/n03405725_16863.JPEG","n13134947/n13134947_784.JPEG","n02752496/n02752496_4812.JPEG","n03405725/n03405725_4407.JPEG","n04451818/n04451818_16676.JPEG","n13104059/n13104059_3270.JPEG"],"trial_ID":16,"responses":["n02752496/n02752496_8557.JPEG","n03622931/n03622931_10061.JPEG","n03622931/n03622931_13232.JPEG"],"rt":11166},{"internal_node_id":"0.0-4.0","time_elapsed":62618,"trial_index":4,"trial_type":"generalization","sample_node":"n01536186","trial_type2":"1_ex","condition":"subordinate_condition","nonsense_word":"abroll","train_images":["n01536186/n01536186_2170.JPEG"],"test_images":["n03800933/n03800933_27413.JPEG","n01621127/n01621127_18408.JPEG","n13134947/n13134947_5691.JPEG","n01613294/n01613294_2527.JPEG","n03800933/n03800933_27261.JPEG","n03800933/n03800933_20182.JPEG","n01536644/n01536644_2231.JPEG","n13134947/n13134947_7559.JPEG","n13104059/n13104059_5709.JPEG","n03800933/n03800933_3469.JPEG","n13134947/n13134947_13105.JPEG","n13134947/n13134947_152.JPEG","n03405725/n03405725_27801.JPEG","n01613294/n01613294_679.JPEG","n01536186/n01536186_4599.JPEG","n13134947/n13134947_6916.JPEG","n01536644/n01536644_9091.JPEG","n13134947/n13134947_4286.JPEG","n01536186/n01536186_5493.JPEG","n13134947/n13134947_5702.JPEG","n13104059/n13104059_9973.JPEG","n01621127/n01621127_18114.JPEG","n13104059/n13104059_2132.JPEG","n04451818/n04451818_138.JPEG"],"trial_ID":16,"responses":["n01536644/n01536644_2231.JPEG","n01536644/n01536644_9091.JPEG","n01621127/n01621127_18114.JPEG"],"rt":15500},{"internal_node_id":"0.0-5.0","time_elapsed":76328,"trial_index":5,"trial_type":"generalization","sample_node":"n03636248","trial_type2":"10_ex","condition":"basic-level_condition","nonsense_word":"claine","train_images":["n03636248/n03636248_24177.JPEG","n03636248/n03636248_2129.JPEG","n03636248/n03636248_29566.JPEG","n03636248/n03636248_11839.JPEG","n03636248/n03636248_23536.JPEG","n03636248/n03636248_19312.JPEG","n03636248/n03636248_13554.JPEG","n03636248/n03636248_3553.JPEG","n03636248/n03636248_631.JPEG","n04380533/n04380533_3013.JPEG"],"test_images":["n02512053/n02512053_11346.JPEG","n03051540/n03051540_20153.JPEG","n04524313/n04524313_1574.JPEG","n02512053/n02512053_8174.JPEG","n04524313/n04524313_5829.JPEG","n03051540/n03051540_12486.JPEG","n03367059/n03367059_4696.JPEG","n02512053/n02512053_7873.JPEG","n03367059/n03367059_9938.JPEG","n04379243/n04379243_12947.JPEG","n03800933/n03800933_20251.JPEG","n03800933/n03800933_6108.JPEG","n13134947/n13134947_11015.JPEG","n04379243/n04379243_5677.JPEG","n03051540/n03051540_19067.JPEG","n04379243/n04379243_5242.JPEG","n04379243/n04379243_13971.JPEG","n01503061/n01503061_12461.JPEG","n02512053/n02512053_10738.JPEG","n04524313/n04524313_986.JPEG","n04380533/n04380533_1779.JPEG","n04380533/n04380533_5108.JPEG","n03800933/n03800933_21828.JPEG","n02512053/n02512053_10685.JPEG"],"trial_ID":16,"responses":["n03367059/n03367059_9938.JPEG","n04380533/n04380533_1779.JPEG","n04380533/n04380533_5108.JPEG"],"rt":12682},{"internal_node_id":"0.0-6.0","time_elapsed":104716,"trial_index":6,"trial_type":"generalization","sample_node":"n07760755","trial_type2":"10_ex","condition":"subordinate_condition","nonsense_word":"aftion","train_images":["n07760755/n07760755_2192.JPEG","n07760755/n07760755_1747.JPEG","n07760755/n07760755_2715.JPEG","n07760755/n07760755_2252.JPEG","n07760755/n07760755_2224.JPEG","n07760755/n07760755_2595.JPEG","n07760755/n07760755_345.JPEG","n07760755/n07760755_2193.JPEG","n07760755/n07760755_1555.JPEG","n07760755/n07760755_67.JPEG"],"test_images":["n04524313/n04524313_8671.JPEG","n02512053/n02512053_5168.JPEG","n04524313/n04524313_1985.JPEG","n07760755/n07760755_908.JPEG","n13104059/n13104059_13880.JPEG","n07744246/n07744246_9977.JPEG","n01503061/n01503061_1996.JPEG","n13104059/n13104059_13270.JPEG","n04524313/n04524313_4472.JPEG","n03051540/n03051540_30598.JPEG","n02512053/n02512053_6809.JPEG","n01503061/n01503061_10633.JPEG","n07739125/n07739125_10066.JPEG","n01503061/n01503061_14426.JPEG","n07760755/n07760755_705.JPEG","n07744246/n07744246_7162.JPEG","n04524313/n04524313_6527.JPEG","n04524313/n04524313_5298.JPEG","n07744246/n07744246_11368.JPEG","n03800933/n03800933_7479.JPEG","n04451818/n04451818_3940.JPEG","n03051540/n03051540_49220.JPEG","n07759194/n07759194_145.JPEG","n07759194/n07759194_4679.JPEG"],"trial_ID":16,"responses":["n07760755/n07760755_908.JPEG","n07760755/n07760755_705.JPEG"],"rt":27354},{"internal_node_id":"0.0-7.0","time_elapsed":121382,"trial_index":7,"trial_type":"generalization","sample_node":"n03452741","trial_type2":"3_ex","condition":"subordinate_condition","nonsense_word":"rephan","train_images":["n03452741/n03452741_7349.JPEG","n03452741/n03452741_5900.JPEG","n03452741/n03452741_2372.JPEG"],"test_images":["n03249569/n03249569_17404.JPEG","n13104059/n13104059_8998.JPEG","n13104059/n13104059_4627.JPEG","n13134947/n13134947_4642.JPEG","n01503061/n01503061_9907.JPEG","n03467517/n03467517_15732.JPEG","n03405725/n03405725_1480.JPEG","n04451818/n04451818_7019.JPEG","n13104059/n13104059_4801.JPEG","n03249569/n03249569_30494.JPEG","n13104059/n13104059_4368.JPEG","n01503061/n01503061_14426.JPEG","n13134947/n13134947_6175.JPEG","n03405725/n03405725_3804.JPEG","n03405725/n03405725_14949.JPEG","n03452741/n03452741_5606.JPEG","n04515003/n04515003_4650.JPEG","n13104059/n13104059_2268.JPEG","n01503061/n01503061_10695.JPEG","n04451818/n04451818_2158.JPEG","n04515003/n04515003_4403.JPEG","n03452741/n03452741_6143.JPEG","n01503061/n01503061_9953.JPEG","n03249569/n03249569_9327.JPEG"],"trial_ID":16,"responses":["n04515003/n04515003_4650.JPEG","n04515003/n04515003_4403.JPEG","n03452741/n03452741_6143.JPEG"],"rt":15640},{"internal_node_id":"0.0-8.0","time_elapsed":136907,"trial_index":8,"trial_type":"generalization","sample_node":"n02538010","trial_type2":"1_ex","condition":"subordinate_condition","nonsense_word":"pomple","train_images":["n02538010/n02538010_10974.JPEG"],"test_images":["n03405725/n03405725_9592.JPEG","n03405725/n03405725_8728.JPEG","n03800933/n03800933_6478.JPEG","n03051540/n03051540_55656.JPEG","n03800933/n03800933_18457.JPEG","n02586543/n02586543_2976.JPEG","n02537525/n02537525_1363.JPEG","n02534734/n02534734_4968.JPEG","n04524313/n04524313_8936.JPEG","n02537525/n02537525_172.JPEG","n02538010/n02538010_2780.JPEG","n04524313/n04524313_568.JPEG","n03405725/n03405725_1713.JPEG","n03051540/n03051540_12865.JPEG","n02538010/n02538010_6293.JPEG","n04524313/n04524313_8811.JPEG","n03800933/n03800933_2460.JPEG","n02586543/n02586543_444.JPEG","n03800933/n03800933_14694.JPEG","n03051540/n03051540_60189.JPEG","n03051540/n03051540_8840.JPEG","n13134947/n13134947_3877.JPEG","n03405725/n03405725_2793.JPEG","n02534734/n02534734_1653.JPEG"],"trial_ID":16,"responses":["n02586543/n02586543_2976.JPEG","n02537525/n02537525_1363.JPEG","n02537525/n02537525_172.JPEG","n02586543/n02586543_444.JPEG","n02534734/n02534734_1653.JPEG"],"rt":14498},{"internal_node_id":"0.0-9.0","time_elapsed":154251,"trial_index":9,"trial_type":"generalization","sample_node":"n03361683","trial_type2":"3_ex","condition":"subordinate_condition","nonsense_word":"stuyer","train_images":["n03361683/n03361683_1557.JPEG","n03361683/n03361683_507.JPEG","n03361683/n03361683_96.JPEG"],"test_images":["n13134947/n13134947_7474.JPEG","n03923692/n03923692_1086.JPEG","n01503061/n01503061_657.JPEG","n01503061/n01503061_13020.JPEG","n03800933/n03800933_2620.JPEG","n01503061/n01503061_9869.JPEG","n03481172/n03481172_28434.JPEG","n03361683/n03361683_477.JPEG","n03405725/n03405725_2692.JPEG","n01503061/n01503061_11899.JPEG","n04140064/n04140064_14634.JPEG","n13104059/n13104059_12174.JPEG","n03800933/n03800933_20734.JPEG","n04140064/n04140064_9375.JPEG","n13104059/n13104059_578.JPEG","n03051540/n03051540_20785.JPEG","n03051540/n03051540_8806.JPEG","n04140064/n04140064_14009.JPEG","n03405725/n03405725_3119.JPEG","n03923692/n03923692_818.JPEG","n13104059/n13104059_14998.JPEG","n03051540/n03051540_52987.JPEG","n03361683/n03361683_346.JPEG","n03051540/n03051540_20245.JPEG"],"trial_ID":16,"responses":["n03923692/n03923692_1086.JPEG","n03481172/n03481172_28434.JPEG","n03361683/n03361683_477.JPEG","n04140064/n04140064_14009.JPEG","n03923692/n03923692_818.JPEG","n03361683/n03361683_346.JPEG"],"rt":16312}],"__v":0}
{"_id":{"$oid":"591c898b803d090004bd99a7"},"data":[{"internal_node_id":"0.0-2.0","time_elapsed":49084,"trial_index":2,"trial_type":"generalization","sample_node":"n03930630","trial_type2":"1_ex","condition":"subordinate_condition","nonsense_word":"rephan","train_images":["n03930630/n03930630_10328.JPEG"],"test_images":["n02512053/n02512053_11904.JPEG","n03405725/n03405725_34959.JPEG","n03800933/n03800933_7696.JPEG","n02691156/n02691156_8149.JPEG","n02691156/n02691156_1085.JPEG","n03930630/n03930630_5531.JPEG","n13134947/n13134947_5689.JPEG","n03800933/n03800933_8496.JPEG","n04467665/n04467665_16045.JPEG","n13134947/n13134947_5837.JPEG","n04467665/n04467665_22600.JPEG","n03405725/n03405725_26597.JPEG","n02512053/n02512053_10575.JPEG","n03930630/n03930630_2987.JPEG","n13134947/n13134947_4488.JPEG","n02958343/n02958343_5863.JPEG","n01503061/n01503061_14220.JPEG","n03800933/n03800933_14652.JPEG","n04451818/n04451818_22932.JPEG","n03405725/n03405725_17832.JPEG","n02512053/n02512053_1140.JPEG","n03051540/n03051540_52135.JPEG","n02691156/n02691156_15954.JPEG","n03800933/n03800933_22357.JPEG"],"trial_ID":4,"responses":["n03930630/n03930630_5531.JPEG","n04467665/n04467665_16045.JPEG","n04467665/n04467665_22600.JPEG","n03930630/n03930630_2987.JPEG","n02958343/n02958343_5863.JPEG"],"rt":27044},{"internal_node_id":"0.0-3.0","time_elapsed":72358,"trial_index":3,"trial_type":"generalization","sample_node":"n04197391","trial_type2":"10_ex","condition":"basic-level_condition","nonsense_word":"canney","train_images":["n04197391/n04197391_118.JPEG","n04197391/n04197391_4221.JPEG","n04197391/n04197391_17940.JPEG","n03978966/n03978966_1292.JPEG","n04197391/n04197391_12012.JPEG","n04197391/n04197391_2342.JPEG","n04197391/n04197391_9792.JPEG","n04197391/n04197391_6375.JPEG","n04197391/n04197391_18561.JPEG","n04197391/n04197391_8191.JPEG"],"test_images":["n02512053/n02512053_6922.JPEG","n03238879/n03238879_19070.JPEG","n04254777/n04254777_11201.JPEG","n03405725/n03405725_12716.JPEG","n04451818/n04451818_6253.JPEG","n04254777/n04254777_11339.JPEG","n03238879/n03238879_14303.JPEG","n04451818/n04451818_23760.JPEG","n13134947/n13134947_784.JPEG","n03978966/n03978966_9712.JPEG","n13134947/n13134947_3866.JPEG","n04451818/n04451818_7711.JPEG","n03405725/n03405725_9111.JPEG","n03405725/n03405725_27347.JPEG","n04254777/n04254777_2988.JPEG","n13134947/n13134947_2717.JPEG","n03405725/n03405725_16863.JPEG","n13134947/n13134947_2366.JPEG","n03978966/n03978966_2012.JPEG","n04451818/n04451818_16676.JPEG","n13104059/n13104059_11169.JPEG","n13104059/n13104059_3270.JPEG","n03405725/n03405725_4407.JPEG","n04254777/n04254777_17216.JPEG"],"trial_ID":4,"responses":["n03238879/n03238879_19070.JPEG","n03978966/n03978966_9712.JPEG","n03405725/n03405725_27347.JPEG","n13134947/n13134947_2717.JPEG","n03978966/n03978966_2012.JPEG"],"rt":22257},{"internal_node_id":"0.0-4.0","time_elapsed":94386,"trial_index":4,"trial_type":"generalization","sample_node":"n01614343","trial_type2":"10_ex","condition":"subordinate_condition","nonsense_word":"stuyer","train_images":["n01614343/n01614343_1983.JPEG","n01614343/n01614343_4269.JPEG","n01614343/n01614343_4364.JPEG","n01614343/n01614343_2715.JPEG","n01614343/n01614343_6316.JPEG","n01614343/n01614343_2607.JPEG","n01614343/n01614343_3607.JPEG","n01614343/n01614343_2546.JPEG","n01614343/n01614343_5689.JPEG","n01614343/n01614343_974.JPEG"],"test_images":["n03800933/n03800933_27413.JPEG","n03800933/n03800933_27261.JPEG","n03800933/n03800933_20182.JPEG","n03800933/n03800933_3469.JPEG","n01621127/n01621127_11444.JPEG","n03405725/n03405725_27801.JPEG","n13134947/n13134947_5702.JPEG","n04451818/n04451818_138.JPEG","n13134947/n13134947_7559.JPEG","n01621127/n01621127_16335.JPEG","n01614343/n01614343_2241.JPEG","n01614925/n01614925_12190.JPEG","n13134947/n13134947_5691.JPEG","n13104059/n13104059_9973.JPEG","n13104059/n13104059_5709.JPEG","n01614343/n01614343_1894.JPEG","n13134947/n13134947_13105.JPEG","n13104059/n13104059_2132.JPEG","n13134947/n13134947_4286.JPEG","n13134947/n13134947_152.JPEG","n13134947/n13134947_6916.JPEG","n01614925/n01614925_6459.JPEG","n01621127/n01621127_16228.JPEG","n01621127/n01621127_11236.JPEG"],"trial_ID":4,"responses":["n01614343/n01614343_1894.JPEG"],"rt":21012},{"internal_node_id":"0.0-5.0","time_elapsed":115877,"trial_index":5,"trial_type":"generalization","sample_node":"n02738535","trial_type2":"3_ex","condition":"subordinate_condition","nonsense_word":"pomple","train_images":["n02738535/n02738535_8311.JPEG","n02738535/n02738535_20801.JPEG","n02738535/n02738535_1321.JPEG"],"test_images":["n02512053/n02512053_11346.JPEG","n02738535/n02738535_3330.JPEG","n01503061/n01503061_12461.JPEG","n04524313/n04524313_5829.JPEG","n04524313/n04524313_986.JPEG","n04331277/n04331277_7583.JPEG","n04331277/n04331277_1009.JPEG","n04524313/n04524313_1574.JPEG","n02512053/n02512053_7873.JPEG","n03636248/n03636248_558.JPEG","n03800933/n03800933_20251.JPEG","n04379243/n04379243_24328.JPEG","n04379243/n04379243_6202.JPEG","n02738535/n02738535_9375.JPEG","n02512053/n02512053_8174.JPEG","n03800933/n03800933_21828.JPEG","n02512053/n02512053_10685.JPEG","n13134947/n13134947_11015.JPEG","n03051540/n03051540_20153.JPEG","n03636248/n03636248_11082.JPEG","n03051540/n03051540_19067.JPEG","n03800933/n03800933_6108.JPEG","n02512053/n02512053_10738.JPEG","n03051540/n03051540_12486.JPEG"],"trial_ID":4,"responses":["n02738535/n02738535_3330.JPEG","n04331277/n04331277_7583.JPEG","n02738535/n02738535_9375.JPEG"],"rt":20479},{"internal_node_id":"0.0-6.0","time_elapsed":135313,"trial_index":6,"trial_type":"generalization","sample_node":"n07759194","trial_type2":"1_ex","condition":"subordinate_condition","nonsense_word":"coloost","train_images":["n07759194/n07759194_791.JPEG"],"test_images":["n01503061/n01503061_14426.JPEG","n07744246/n07744246_9977.JPEG","n07759194/n07759194_4202.JPEG","n13104059/n13104059_13880.JPEG","n07739125/n07739125_10066.JPEG","n07744246/n07744246_7162.JPEG","n02512053/n02512053_6809.JPEG","n03800933/n03800933_7479.JPEG","n04524313/n04524313_4472.JPEG","n01503061/n01503061_10633.JPEG","n07759194/n07759194_3152.JPEG","n04524313/n04524313_6527.JPEG","n07744246/n07744246_11368.JPEG","n07760755/n07760755_737.JPEG","n04524313/n04524313_1985.JPEG","n02512053/n02512053_5168.JPEG","n13104059/n13104059_13270.JPEG","n03051540/n03051540_49220.JPEG","n04451818/n04451818_3940.JPEG","n04524313/n04524313_5298.JPEG","n01503061/n01503061_1996.JPEG","n07760755/n07760755_2656.JPEG","n03051540/n03051540_30598.JPEG","n04524313/n04524313_8671.JPEG"],"trial_ID":4,"responses":["n07759194/n07759194_4202.JPEG","n07744246/n07744246_7162.JPEG","n07760755/n07760755_737.JPEG","n07760755/n07760755_2656.JPEG"],"rt":18422},{"internal_node_id":"0.0-7.0","time_elapsed":143205,"trial_index":7,"trial_type":"generalization","sample_node":"n03272010","trial_type2":"3_ex","condition":"subordinate_condition","nonsense_word":"abroll","train_images":["n03272010/n03272010_1294.JPEG","n03272010/n03272010_5019.JPEG","n03272010/n03272010_4774.JPEG"],"test_images":["n03405725/n03405725_3804.JPEG","n03928116/n03928116_9344.JPEG","n03249569/n03249569_28995.JPEG","n03272010/n03272010_1400.JPEG","n03272010/n03272010_176.JPEG","n04451818/n04451818_2158.JPEG","n03249569/n03249569_34879.JPEG","n13104059/n13104059_2268.JPEG","n13104059/n13104059_8998.JPEG","n13134947/n13134947_4642.JPEG","n01503061/n01503061_10695.JPEG","n13104059/n13104059_4368.JPEG","n02676566/n02676566_4373.JPEG","n01503061/n01503061_14426.JPEG","n01503061/n01503061_9907.JPEG","n13104059/n13104059_4627.JPEG","n13134947/n13134947_6175.JPEG","n03249569/n03249569_37625.JPEG","n01503061/n01503061_9953.JPEG","n04451818/n04451818_7019.JPEG","n03405725/n03405725_14949.JPEG","n13104059/n13104059_4801.JPEG","n03405725/n03405725_1480.JPEG","n02676566/n02676566_5735.JPEG"],"trial_ID":4,"responses":["n03272010/n03272010_1400.JPEG","n03272010/n03272010_176.JPEG","n02676566/n02676566_5735.JPEG"],"rt":6872},{"internal_node_id":"0.0-8.0","time_elapsed":158522,"trial_index":8,"trial_type":"generalization","sample_node":"n02586543","trial_type2":"10_ex","condition":"basic-level_condition","nonsense_word":"claine","train_images":["n02586543/n02586543_5529.JPEG","n02586543/n02586543_11459.JPEG","n02586543/n02586543_10876.JPEG","n02586543/n02586543_6923.JPEG","n02586543/n02586543_11266.JPEG","n02586543/n02586543_4321.JPEG","n02586543/n02586543_3700.JPEG","n02586543/n02586543_3377.JPEG","n02586543/n02586543_13871.JPEG","n02587300/n02587300_9221.JPEG"],"test_images":["n02537085/n02537085_8705.JPEG","n03800933/n03800933_2460.JPEG","n03051540/n03051540_55656.JPEG","n03800933/n03800933_6478.JPEG","n04524313/n04524313_8811.JPEG","n02534734/n02534734_4091.JPEG","n03051540/n03051540_8840.JPEG","n02587051/n02587051_172.JPEG","n02537085/n02537085_411.JPEG","n03405725/n03405725_2793.JPEG","n02587051/n02587051_564.JPEG","n03405725/n03405725_9592.JPEG","n02587300/n02587300_925.JPEG","n03051540/n03051540_60189.JPEG","n04524313/n04524313_568.JPEG","n03051540/n03051540_12865.JPEG","n02587300/n02587300_6699.JPEG","n03405725/n03405725_8728.JPEG","n02537085/n02537085_7519.JPEG","n13134947/n13134947_3877.JPEG","n03405725/n03405725_1713.JPEG","n03800933/n03800933_18457.JPEG","n04524313/n04524313_8936.JPEG","n03800933/n03800933_14694.JPEG"],"trial_ID":4,"responses":["n02587051/n02587051_172.JPEG","n02587051/n02587051_564.JPEG","n02587300/n02587300_925.JPEG","n02587300/n02587300_6699.JPEG","n02537085/n02537085_7519.JPEG"],"rt":14298},{"internal_node_id":"0.0-9.0","time_elapsed":169261,"trial_index":9,"trial_type":"generalization","sample_node":"n04154565","trial_type2":"3_ex","condition":"basic-level_condition","nonsense_word":"aftion","train_images":["n04154565/n04154565_381.JPEG","n03361683/n03361683_507.JPEG","n04154565/n04154565_18999.JPEG"],"test_images":["n03051540/n03051540_20785.JPEG","n13104059/n13104059_578.JPEG","n03051540/n03051540_52987.JPEG","n03405725/n03405725_2692.JPEG","n03361683/n03361683_346.JPEG","n01503061/n01503061_657.JPEG","n03800933/n03800933_20734.JPEG","n03361683/n03361683_477.JPEG","n01503061/n01503061_9869.JPEG","n04140064/n04140064_14634.JPEG","n03051540/n03051540_8806.JPEG","n03923692/n03923692_818.JPEG","n04140064/n04140064_9375.JPEG","n03481172/n03481172_28434.JPEG","n13104059/n13104059_14998.JPEG","n13134947/n13134947_7474.JPEG","n03923692/n03923692_1086.JPEG","n01503061/n01503061_13020.JPEG","n04140064/n04140064_14009.JPEG","n13104059/n13104059_12174.JPEG","n03800933/n03800933_2620.JPEG","n03405725/n03405725_3119.JPEG","n03051540/n03051540_20245.JPEG","n01503061/n01503061_11899.JPEG"],"trial_ID":4,"responses":["n03361683/n03361683_346.JPEG","n03361683/n03361683_477.JPEG","n03923692/n03923692_818.JPEG","n03923692/n03923692_1086.JPEG"],"rt":9725}],"__v":0}
{"_id":{"$oid":"591c898c803d090004bd99a8"},"data":[{"internal_node_id":"0.0-2.0","time_elapsed":40840,"trial_index":2,"trial_type":"generalization","sample_node":"n02691156","trial_type2":"10_ex","condition":"basic-level_condition","nonsense_word":"pomple","train_images":["n02691156/n02691156_9947.JPEG","n02691156/n02691156_5281.JPEG","n02691156/n02691156_46903.JPEG","n02691156/n02691156_13350.JPEG","n02691156/n02691156_385.JPEG","n02690373/n02690373_5130.JPEG","n02691156/n02691156_11043.JPEG","n02691156/n02691156_2173.JPEG","n02691156/n02691156_6563.JPEG","n02691156/n02691156_17990.JPEG"],"test_images":["n04490091/n04490091_19855.JPEG","n03335030/n03335030_3334.JPEG","n13134947/n13134947_5837.JPEG","n04490091/n04490091_27269.JPEG","n02512053/n02512053_1140.JPEG","n02512053/n02512053_10575.JPEG","n03800933/n03800933_7696.JPEG","n03405725/n03405725_34959.JPEG","n04490091/n04490091_16210.JPEG","n03051540/n03051540_52135.JPEG","n02512053/n02512053_11904.JPEG","n04451818/n04451818_22932.JPEG","n03800933/n03800933_14652.JPEG","n03405725/n03405725_26597.JPEG","n02690373/n02690373_68.JPEG","n03800933/n03800933_22357.JPEG","n03335030/n03335030_4167.JPEG","n04490091/n04490091_3864.JPEG","n13134947/n13134947_5689.JPEG","n03800933/n03800933_8496.JPEG","n02690373/n02690373_17937.JPEG","n13134947/n13134947_4488.JPEG","n03405725/n03405725_17832.JPEG","n01503061/n01503061_14220.JPEG"],"trial_ID":58,"responses":["n02690373/n02690373_68.JPEG","n02690373/n02690373_17937.JPEG"],"rt":35236},{"internal_node_id":"0.0-3.0","time_elapsed":60405,"trial_index":3,"trial_type":"generalization","sample_node":"n03238879","trial_type2":"10_ex","condition":"subordinate_condition","nonsense_word":"abroll","train_images":["n03238879/n03238879_12359.JPEG","n03238879/n03238879_13186.JPEG","n03238879/n03238879_2991.JPEG","n03238879/n03238879_4242.JPEG","n03238879/n03238879_7887.JPEG","n03238879/n03238879_7117.JPEG","n03238879/n03238879_1428.JPEG","n03238879/n03238879_1918.JPEG","n03238879/n03238879_2674.JPEG","n03238879/n03238879_2066.JPEG"],"test_images":["n04451818/n04451818_7711.JPEG","n13104059/n13104059_3270.JPEG","n04451818/n04451818_16676.JPEG","n04451818/n04451818_23760.JPEG","n13134947/n13134947_3866.JPEG","n03238879/n03238879_11501.JPEG","n04254777/n04254777_11339.JPEG","n03978966/n03978966_1995.JPEG","n02512053/n02512053_6922.JPEG","n04254777/n04254777_17216.JPEG","n03405725/n03405725_9111.JPEG","n13104059/n13104059_11169.JPEG","n04254777/n04254777_2988.JPEG","n03405725/n03405725_27347.JPEG","n03238879/n03238879_10424.JPEG","n04451818/n04451818_6253.JPEG","n13134947/n13134947_2717.JPEG","n03405725/n03405725_12716.JPEG","n13134947/n13134947_2366.JPEG","n03405725/n03405725_4407.JPEG","n03978966/n03978966_4073.JPEG","n03405725/n03405725_16863.JPEG","n04254777/n04254777_11201.JPEG","n13134947/n13134947_784.JPEG"],"trial_ID":58,"responses":["n03238879/n03238879_11501.JPEG"],"rt":18544},{"internal_node_id":"0.0-4.0","time_elapsed":71641,"trial_index":4,"trial_type":"generalization","sample_node":"n01503061","trial_type2":"5_ex","condition":"superordinate_condition","nonsense_word":"claine","train_images":["n01503061/n01503061_14964.JPEG","n01622779/n01622779_2271.JPEG","n01503061/n01503061_21982.JPEG","n01503061/n01503061_14863.JPEG","n01503061/n01503061_3185.JPEG"],"test_images":["n01539573/n01539573_5755.JPEG","n03800933/n03800933_20182.JPEG","n13134947/n13134947_6916.JPEG","n13104059/n13104059_2132.JPEG","n01625562/n01625562_8542.JPEG","n01622779/n01622779_6305.JPEG","n03800933/n03800933_27413.JPEG","n13134947/n13134947_5691.JPEG","n01539573/n01539573_1610.JPEG","n13134947/n13134947_4286.JPEG","n13134947/n13134947_13105.JPEG","n04451818/n04451818_138.JPEG","n01613294/n01613294_6234.JPEG","n13134947/n13134947_152.JPEG","n01625562/n01625562_4625.JPEG","n03405725/n03405725_27801.JPEG","n13134947/n13134947_5702.JPEG","n03800933/n03800933_3469.JPEG","n13134947/n13134947_7559.JPEG","n03800933/n03800933_27261.JPEG","n01622779/n01622779_1742.JPEG","n13104059/n13104059_5709.JPEG","n13104059/n13104059_9973.JPEG","n01539573/n01539573_3705.JPEG"],"trial_ID":58,"responses":["n01625562/n01625562_8542.JPEG","n01625562/n01625562_4625.JPEG","n01622779/n01622779_1742.JPEG"],"rt":10214},{"internal_node_id":"0.0-5.0","time_elapsed":76317,"trial_index":5,"trial_type":"generalization","sample_node":"n04380533","trial_type2":"1_ex","condition":"subordinate_condition","nonsense_word":"rephan","train_images":["n04380533/n04380533_3013.JPEG"],"test_images":["n04379243/n04379243_12947.JPEG","n04380533/n04380533_5108.JPEG","n04380533/n04380533_1779.JPEG","n04524313/n04524313_5829.JPEG","n02512053/n02512053_10738.JPEG","n02512053/n02512053_11346.JPEG","n04524313/n04524313_1574.JPEG","n02512053/n02512053_10685.JPEG","n03367059/n03367059_9938.JPEG","n03800933/n03800933_20251.JPEG","n03051540/n03051540_12486.JPEG","n03051540/n03051540_19067.JPEG","n01503061/n01503061_12461.JPEG","n13134947/n13134947_11015.JPEG","n04524313/n04524313_986.JPEG","n03367059/n03367059_4696.JPEG","n03051540/n03051540_20153.JPEG","n02512053/n02512053_8174.JPEG","n04379243/n04379243_5677.JPEG","n03800933/n03800933_21828.JPEG","n03800933/n03800933_6108.JPEG","n02512053/n02512053_7873.JPEG","n04379243/n04379243_13971.JPEG","n04379243/n04379243_5242.JPEG"],"trial_ID":58,"responses":["n04380533/n04380533_5108.JPEG","n04380533/n04380533_1779.JPEG"],"rt":3666},{"internal_node_id":"0.0-6.0","time_elapsed":81649,"trial_index":6,"trial_type":"generalization","sample_node":"n07758680","trial_type2":"5_ex","condition":"basic-level_condition","nonsense_word":"coloost","train_images":["n07758680/n07758680_8971.JPEG","n07758680/n07758680_11408.JPEG","n07758680/n07758680_2842.JPEG","n07760755/n07760755_2193.JPEG","n07758680/n07758680_13038.JPEG"],"test_images":["n07739125/n07739125_10066.JPEG","n04524313/n04524313_6527.JPEG","n04524313/n04524313_5298.JPEG","n03800933/n03800933_7479.JPEG","n13104059/n13104059_13270.JPEG","n03051540/n03051540_30598.JPEG","n01503061/n01503061_1996.JPEG","n07760755/n07760755_705.JPEG","n02512053/n02512053_6809.JPEG","n07760755/n07760755_908.JPEG","n04451818/n04451818_3940.JPEG","n07744246/n07744246_11368.JPEG","n07759194/n07759194_4679.JPEG","n04524313/n04524313_8671.JPEG","n02512053/n02512053_5168.JPEG","n03051540/n03051540_49220.JPEG","n01503061/n01503061_10633.JPEG","n04524313/n04524313_1985.JPEG","n01503061/n01503061_14426.JPEG","n07744246/n07744246_7162.JPEG","n13104059/n13104059_13880.JPEG","n04524313/n04524313_4472.JPEG","n07744246/n07744246_9977.JPEG","n07759194/n07759194_145.JPEG"],"trial_ID":58,"responses":["n07760755/n07760755_705.JPEG","n07760755/n07760755_908.JPEG"],"rt":4322},{"internal_node_id":"0.0-7.0","time_elapsed":87270,"trial_index":7,"trial_type":"generalization","sample_node":"n04387400","trial_type2":"5_ex","condition":"subordinate_condition","nonsense_word":"stuyer","train_images":["n04387400/n04387400_306.JPEG","n04387400/n04387400_8945.JPEG","n04387400/n04387400_589.JPEG","n04387400/n04387400_4949.JPEG","n04387400/n04387400_16547.JPEG"],"test_images":["n03467517/n03467517_17583.JPEG","n04387400/n04387400_9558.JPEG","n13134947/n13134947_6175.JPEG","n03467517/n03467517_17292.JPEG","n04387400/n04387400_5936.JPEG","n03405725/n03405725_14949.JPEG","n01503061/n01503061_10695.JPEG","n03467517/n03467517_23315.JPEG","n03467517/n03467517_14895.JPEG","n04451818/n04451818_7019.JPEG","n04451818/n04451818_2158.JPEG","n13104059/n13104059_4627.JPEG","n13104059/n13104059_2268.JPEG","n03405725/n03405725_3804.JPEG","n02803666/n02803666_774.JPEG","n01503061/n01503061_14426.JPEG","n03405725/n03405725_1480.JPEG","n01503061/n01503061_9907.JPEG","n01503061/n01503061_9953.JPEG","n13104059/n13104059_4368.JPEG","n02803666/n02803666_16323.JPEG","n13104059/n13104059_4801.JPEG","n13104059/n13104059_8998.JPEG","n13134947/n13134947_4642.JPEG"],"trial_ID":58,"responses":["n04387400/n04387400_9558.JPEG","n04387400/n04387400_5936.JPEG"],"rt":4601},{"internal_node_id":"0.0-8.0","time_elapsed":95109,"trial_index":8,"trial_type":"generalization","sample_node":"n02537085","trial_type2":"3_ex","condition":"basic-level_condition","nonsense_word":"canney","train_images":["n02538010/n02538010_10974.JPEG","n02537085/n02537085_10117.JPEG","n02537085/n02537085_3747.JPEG"],"test_images":["n02586543/n02586543_2976.JPEG","n03405725/n03405725_8728.JPEG","n02586543/n02586543_444.JPEG","n02538010/n02538010_6293.JPEG","n04524313/n04524313_8811.JPEG","n03800933/n03800933_18457.JPEG","n03051540/n03051540_55656.JPEG","n03051540/n03051540_8840.JPEG","n03800933/n03800933_14694.JPEG","n03405725/n03405725_9592.JPEG","n03800933/n03800933_6478.JPEG","n03405725/n03405725_1713.JPEG","n02537525/n02537525_1363.JPEG","n02534734/n02534734_4968.JPEG","n13134947/n13134947_3877.JPEG","n02537525/n02537525_172.JPEG","n03800933/n03800933_2460.JPEG","n02534734/n02534734_1653.JPEG","n04524313/n04524313_568.JPEG","n03051540/n03051540_12865.JPEG","n03051540/n03051540_60189.JPEG","n03405725/n03405725_2793.JPEG","n02538010/n02538010_2780.JPEG","n04524313/n04524313_8936.JPEG"],"trial_ID":58,"responses":["n02537525/n02537525_172.JPEG"],"rt":6823},{"internal_node_id":"0.0-9.0","time_elapsed":102567,"trial_index":9,"trial_type":"generalization","sample_node":"n02966545","trial_type2":"5_ex","condition":"subordinate_condition","nonsense_word":"aftion","train_images":["n02966545/n02966545_11058.JPEG","n02966545/n02966545_3232.JPEG","n02966545/n02966545_2798.JPEG","n02966545/n02966545_5683.JPEG","n02966545/n02966545_9313.JPEG"],"test_images":["n02966545/n02966545_4820.JPEG","n04140064/n04140064_10299.JPEG","n04154565/n04154565_12843.JPEG","n03051540/n03051540_20245.JPEG","n03051540/n03051540_52987.JPEG","n03405725/n03405725_2692.JPEG","n13104059/n13104059_14998.JPEG","n13104059/n13104059_12174.JPEG","n13134947/n13134947_7474.JPEG","n01503061/n01503061_9869.JPEG","n03405725/n03405725_3119.JPEG","n02783035/n02783035_286.JPEG","n01503061/n01503061_657.JPEG","n03051540/n03051540_20785.JPEG","n02783035/n02783035_596.JPEG","n03051540/n03051540_8806.JPEG","n03800933/n03800933_2620.JPEG","n01503061/n01503061_13020.JPEG","n01503061/n01503061_11899.JPEG","n04140064/n04140064_19018.JPEG","n03800933/n03800933_20734.JPEG","n13104059/n13104059_578.JPEG","n02966545/n02966545_1564.JPEG","n04154565/n04154565_5055.JPEG"],"trial_ID":58,"responses":["n02966545/n02966545_4820.JPEG","n02783035/n02783035_286.JPEG","n02966545/n02966545_1564.JPEG"],"rt":6438}],"__v":0}
{"_id":{"$oid":"591c898f803d090004bd99a9"},"data":[{"internal_node_id":"0.0-2.0","time_elapsed":23229,"trial_index":2,"trial_type":"generalization","sample_node":"n04524313","trial_type2":"3_ex","condition":"superordinate_condition","nonsense_word":"pomple","train_images":["n04524313/n04524313_3036.JPEG","n02690373/n02690373_5130.JPEG","n04524313/n04524313_2433.JPEG"],"test_images":["n02512053/n02512053_11904.JPEG","n03405725/n03405725_34959.JPEG","n03800933/n03800933_7696.JPEG","n03405725/n03405725_26597.JPEG","n04451818/n04451818_22932.JPEG","n01503061/n01503061_14220.JPEG","n13134947/n13134947_4488.JPEG","n04490091/n04490091_3864.JPEG","n04490091/n04490091_19855.JPEG","n03335030/n03335030_3334.JPEG","n03405725/n03405725_17832.JPEG","n04490091/n04490091_27269.JPEG","n03335030/n03335030_4167.JPEG","n03800933/n03800933_14652.JPEG","n04490091/n04490091_16210.JPEG","n03800933/n03800933_8496.JPEG","n03051540/n03051540_52135.JPEG","n02690373/n02690373_17937.JPEG","n03800933/n03800933_22357.JPEG","n13134947/n13134947_5689.JPEG","n02512053/n02512053_1140.JPEG","n02690373/n02690373_68.JPEG","n13134947/n13134947_5837.JPEG","n02512053/n02512053_10575.JPEG"],"trial_ID":55,"responses":["n04490091/n04490091_3864.JPEG","n04490091/n04490091_19855.JPEG","n04490091/n04490091_27269.JPEG","n03335030/n03335030_4167.JPEG","n04490091/n04490091_16210.JPEG","n02690373/n02690373_17937.JPEG","n02690373/n02690373_68.JPEG"],"rt":19032},{"internal_node_id":"0.0-3.0","time_elapsed":34299,"trial_index":3,"trial_type":"generalization","sample_node":"n03978966","trial_type2":"5_ex","condition":"subordinate_condition","nonsense_word":"rephan","train_images":["n03978966/n03978966_11441.JPEG","n03978966/n03978966_6829.JPEG","n03978966/n03978966_2651.JPEG","n03978966/n03978966_3615.JPEG","n03978966/n03978966_1292.JPEG"],"test_images":["n13134947/n13134947_2717.JPEG","n04451818/n04451818_6253.JPEG","n03405725/n03405725_4407.JPEG","n04254777/n04254777_17216.JPEG","n04254777/n04254777_11201.JPEG","n13134947/n13134947_2366.JPEG","n04451818/n04451818_23760.JPEG","n03405725/n03405725_12716.JPEG","n13104059/n13104059_3270.JPEG","n03405725/n03405725_9111.JPEG","n03978966/n03978966_9712.JPEG","n03405725/n03405725_16863.JPEG","n02512053/n02512053_6922.JPEG","n13134947/n13134947_784.JPEG","n03405725/n03405725_27347.JPEG","n04451818/n04451818_7711.JPEG","n04254777/n04254777_2988.JPEG","n03978966/n03978966_2012.JPEG","n03238879/n03238879_14303.JPEG","n13104059/n13104059_11169.JPEG","n04254777/n04254777_11339.JPEG","n13134947/n13134947_3866.JPEG","n04451818/n04451818_16676.JPEG","n03238879/n03238879_19070.JPEG"],"trial_ID":55,"responses":["n03978966/n03978966_9712.JPEG","n03978966/n03978966_2012.JPEG","n03238879/n03238879_14303.JPEG","n03238879/n03238879_19070.JPEG"],"rt":10056},{"internal_node_id":"0.0-4.0","time_elapsed":48586,"trial_index":4,"trial_type":"generalization","sample_node":"n01539573","trial_type2":"3_ex","condition":"basic-level_condition","nonsense_word":"claine","train_images":["n01539573/n01539573_11255.JPEG","n01539573/n01539573_2752.JPEG","n01536186/n01536186_2170.JPEG"],"test_images":["n13134947/n13134947_7559.JPEG","n01613294/n01613294_679.JPEG","n03405725/n03405725_27801.JPEG","n13134947/n13134947_5691.JPEG","n13104059/n13104059_5709.JPEG","n13134947/n13134947_4286.JPEG","n13104059/n13104059_2132.JPEG","n03800933/n03800933_27261.JPEG","n03800933/n03800933_20182.JPEG","n13134947/n13134947_6916.JPEG","n13134947/n13134947_13105.JPEG","n13134947/n13134947_152.JPEG","n13134947/n13134947_5702.JPEG","n01536644/n01536644_2231.JPEG","n01621127/n01621127_18408.JPEG","n04451818/n04451818_138.JPEG","n03800933/n03800933_3469.JPEG","n01536186/n01536186_4599.JPEG","n01613294/n01613294_2527.JPEG","n03800933/n03800933_27413.JPEG","n01621127/n01621127_18114.JPEG","n13104059/n13104059_9973.JPEG","n01536644/n01536644_9091.JPEG","n01536186/n01536186_5493.JPEG"],"trial_ID":55,"responses":["n01613294/n01613294_679.JPEG","n01536644/n01536644_2231.JPEG","n01621127/n01621127_18408.JPEG","n01536186/n01536186_4599.JPEG","n01613294/n01613294_2527.JPEG","n01621127/n01621127_18114.JPEG","n01536644/n01536644_9091.JPEG","n01536186/n01536186_5493.JPEG"],"rt":13274},{"internal_node_id":"0.0-5.0","time_elapsed":63839,"trial_index":5,"trial_type":"generalization","sample_node":"n04379243","trial_type2":"10_ex","condition":"basic-level_condition","nonsense_word":"canney","train_images":["n04379243/n04379243_10963.JPEG","n04379243/n04379243_3880.JPEG","n04379243/n04379243_25104.JPEG","n04379243/n04379243_255.JPEG","n04379243/n04379243_19183.JPEG","n03620967/n03620967_1062.JPEG","n04379243/n04379243_22184.JPEG","n04379243/n04379243_4923.JPEG","n04379243/n04379243_20186.JPEG","n04379243/n04379243_13791.JPEG"],"test_images":["n03051540/n03051540_19067.JPEG","n03800933/n03800933_6108.JPEG","n03051540/n03051540_20153.JPEG","n03201035/n03201035_1873.JPEG","n02512053/n02512053_10738.JPEG","n04524313/n04524313_1574.JPEG","n01503061/n01503061_12461.JPEG","n03001627/n03001627_4257.JPEG","n03620967/n03620967_2570.JPEG","n02512053/n02512053_11346.JPEG","n04524313/n04524313_5829.JPEG","n13134947/n13134947_11015.JPEG","n03636248/n03636248_5923.JPEG","n02512053/n02512053_10685.JPEG","n03800933/n03800933_21828.JPEG","n02512053/n02512053_7873.JPEG","n03620967/n03620967_2839.JPEG","n04524313/n04524313_986.JPEG","n03636248/n03636248_11154.JPEG","n02512053/n02512053_8174.JPEG","n03636248/n03636248_14561.JPEG","n03201035/n03201035_8481.JPEG","n03800933/n03800933_20251.JPEG","n03051540/n03051540_12486.JPEG"],"trial_ID":55,"responses":["n03201035/n03201035_1873.JPEG","n03620967/n03620967_2570.JPEG","n03620967/n03620967_2839.JPEG","n03636248/n03636248_11154.JPEG","n03201035/n03201035_8481.JPEG"],"rt":14240},{"internal_node_id":"0.0-6.0","time_elapsed":74983,"trial_index":6,"trial_type":"generalization","sample_node":"n07744246","trial_type2":"3_ex","condition":"basic-level_condition","nonsense_word":"coloost","train_images":["n07744246/n07744246_3810.JPEG","n07744246/n07744246_3078.JPEG","n07744682/n07744682_6061.JPEG"],"test_images":["n13104059/n13104059_13270.JPEG","n04524313/n04524313_6527.JPEG","n03051540/n03051540_30598.JPEG","n07739125/n07739125_8801.JPEG","n13104059/n13104059_13880.JPEG","n07739125/n07739125_8850.JPEG","n04524313/n04524313_1985.JPEG","n02512053/n02512053_5168.JPEG","n07744559/n07744559_5752.JPEG","n04524313/n04524313_4472.JPEG","n04524313/n04524313_5298.JPEG","n01503061/n01503061_1996.JPEG","n07744682/n07744682_992.JPEG","n04524313/n04524313_8671.JPEG","n03800933/n03800933_7479.JPEG","n07739125/n07739125_13813.JPEG","n07744559/n07744559_5748.JPEG","n03051540/n03051540_49220.JPEG","n07739125/n07739125_1547.JPEG","n07744682/n07744682_2902.JPEG","n04451818/n04451818_3940.JPEG","n02512053/n02512053_6809.JPEG","n01503061/n01503061_10633.JPEG","n01503061/n01503061_14426.JPEG"],"trial_ID":55,"responses":["n07744682/n07744682_992.JPEG","n07744559/n07744559_5748.JPEG","n07744682/n07744682_2902.JPEG"],"rt":10132},{"internal_node_id":"0.0-7.0","time_elapsed":85992,"trial_index":7,"trial_type":"generalization","sample_node":"n02676566","trial_type2":"10_ex","condition":"subordinate_condition","nonsense_word":"stuyer","train_images":["n02676566/n02676566_7349.JPEG","n02676566/n02676566_8076.JPEG","n02676566/n02676566_3243.JPEG","n02676566/n02676566_8001.JPEG","n02676566/n02676566_7123.JPEG","n02676566/n02676566_6667.JPEG","n02676566/n02676566_1409.JPEG","n02676566/n02676566_9439.JPEG","n02676566/n02676566_103.JPEG","n02676566/n02676566_12169.JPEG"],"test_images":["n03405725/n03405725_14949.JPEG","n02676566/n02676566_9490.JPEG","n01503061/n01503061_9907.JPEG","n01503061/n01503061_9953.JPEG","n03272010/n03272010_1789.JPEG","n13134947/n13134947_4642.JPEG","n03249569/n03249569_28995.JPEG","n03272010/n03272010_3393.JPEG","n02676566/n02676566_4454.JPEG","n13104059/n13104059_8998.JPEG","n03249569/n03249569_37625.JPEG","n13104059/n13104059_4368.JPEG","n03249569/n03249569_34879.JPEG","n03405725/n03405725_1480.JPEG","n01503061/n01503061_14426.JPEG","n13104059/n13104059_4627.JPEG","n13104059/n13104059_2268.JPEG","n04451818/n04451818_2158.JPEG","n01503061/n01503061_10695.JPEG","n03405725/n03405725_3804.JPEG","n04451818/n04451818_7019.JPEG","n13104059/n13104059_4801.JPEG","n13134947/n13134947_6175.JPEG","n03928116/n03928116_9344.JPEG"],"trial_ID":55,"responses":["n03272010/n03272010_1789.JPEG","n02676566/n02676566_4454.JPEG"],"rt":9993},{"internal_node_id":"0.0-8.0","time_elapsed":102422,"trial_index":8,"trial_type":"generalization","sample_node":"n02587051","trial_type2":"3_ex","condition":"subordinate_condition","nonsense_word":"abroll","train_images":["n02587051/n02587051_218.JPEG","n02587051/n02587051_811.JPEG","n02587051/n02587051_837.JPEG"],"test_images":["n04524313/n04524313_8811.JPEG","n02537085/n02537085_7519.JPEG","n03051540/n03051540_55656.JPEG","n03051540/n03051540_60189.JPEG","n02587051/n02587051_1078.JPEG","n02534734/n02534734_4091.JPEG","n03800933/n03800933_14694.JPEG","n04524313/n04524313_568.JPEG","n03800933/n03800933_18457.JPEG","n02587051/n02587051_661.JPEG","n03800933/n03800933_6478.JPEG","n02587300/n02587300_7378.JPEG","n03405725/n03405725_1713.JPEG","n03051540/n03051540_12865.JPEG","n03405725/n03405725_9592.JPEG","n02537085/n02537085_411.JPEG","n04524313/n04524313_8936.JPEG","n03800933/n03800933_2460.JPEG","n02587300/n02587300_5909.JPEG","n13134947/n13134947_3877.JPEG","n03405725/n03405725_2793.JPEG","n03405725/n03405725_8728.JPEG","n03051540/n03051540_8840.JPEG","n02537085/n02537085_8705.JPEG"],"trial_ID":55,"responses":["n02537085/n02537085_7519.JPEG","n02587051/n02587051_1078.JPEG","n02534734/n02534734_4091.JPEG","n02587300/n02587300_7378.JPEG","n02537085/n02537085_411.JPEG","n02587300/n02587300_5909.JPEG","n02537085/n02537085_8705.JPEG"],"rt":15420},{"internal_node_id":"0.0-9.0","time_elapsed":112519,"trial_index":9,"trial_type":"generalization","sample_node":"n03481172","trial_type2":"3_ex","condition":"basic-level_condition","nonsense_word":"aftion","train_images":["n03481172/n03481172_30708.JPEG","n02783035/n02783035_1451.JPEG","n03481172/n03481172_10797.JPEG"],"test_images":["n13104059/n13104059_578.JPEG","n03051540/n03051540_20785.JPEG","n03051540/n03051540_8806.JPEG","n04154565/n04154565_12843.JPEG","n03800933/n03800933_2620.JPEG","n03051540/n03051540_52987.JPEG","n04140064/n04140064_10299.JPEG","n01503061/n01503061_9869.JPEG","n02966545/n02966545_4613.JPEG","n02783035/n02783035_1352.JPEG","n13104059/n13104059_14998.JPEG","n01503061/n01503061_657.JPEG","n13134947/n13134947_7474.JPEG","n01503061/n01503061_13020.JPEG","n04154565/n04154565_5055.JPEG","n03405725/n03405725_3119.JPEG","n03405725/n03405725_2692.JPEG","n13104059/n13104059_12174.JPEG","n02966545/n02966545_8273.JPEG","n04140064/n04140064_19018.JPEG","n03800933/n03800933_20734.JPEG","n01503061/n01503061_11899.JPEG","n02783035/n02783035_1579.JPEG","n03051540/n03051540_20245.JPEG"],"trial_ID":55,"responses":["n02966545/n02966545_4613.JPEG","n02783035/n02783035_1352.JPEG","n02966545/n02966545_8273.JPEG","n02783035/n02783035_1579.JPEG"],"rt":9089}],"__v":0}
{"_id":{"$oid":"591c8999803d090004bd99aa"},"data":[{"internal_node_id":"0.0-2.0","time_elapsed":89649,"trial_index":2,"trial_type":"generalization","sample_node":"n04490091","trial_type2":"10_ex","condition":"basic-level_condition","nonsense_word":"aftion","train_images":["n04490091/n04490091_24268.JPEG","n04490091/n04490091_17576.JPEG","n04490091/n04490091_28667.JPEG","n04490091/n04490091_24599.JPEG","n04490091/n04490091_2165.JPEG","n04490091/n04490091_12409.JPEG","n04490091/n04490091_4233.JPEG","n04490091/n04490091_28547.JPEG","n04490091/n04490091_4573.JPEG","n04467665/n04467665_2626.JPEG"],"test_images":["n03405725/n03405725_34959.JPEG","n02958343/n02958343_5863.JPEG","n02691156/n02691156_15954.JPEG","n02512053/n02512053_1140.JPEG","n13134947/n13134947_4488.JPEG","n02512053/n02512053_10575.JPEG","n13134947/n13134947_5837.JPEG","n03930630/n03930630_13449.JPEG","n03800933/n03800933_14652.JPEG","n03930630/n03930630_2841.JPEG","n03405725/n03405725_17832.JPEG","n02691156/n02691156_8149.JPEG","n02691156/n02691156_1085.JPEG","n03051540/n03051540_52135.JPEG","n04451818/n04451818_22932.JPEG","n02512053/n02512053_11904.JPEG","n03405725/n03405725_26597.JPEG","n01503061/n01503061_14220.JPEG","n03800933/n03800933_8496.JPEG","n04467665/n04467665_3494.JPEG","n13134947/n13134947_5689.JPEG","n03800933/n03800933_7696.JPEG","n04467665/n04467665_5336.JPEG","n03800933/n03800933_22357.JPEG"],"trial_ID":12,"responses":["n03930630/n03930630_13449.JPEG","n03930630/n03930630_2841.JPEG","n04467665/n04467665_3494.JPEG","n04467665/n04467665_5336.JPEG"],"rt":24162},{"internal_node_id":"0.0-3.0","time_elapsed":101330,"trial_index":3,"trial_type":"generalization","sample_node":"n03594734","trial_type2":"5_ex","condition":"subordinate_condition","nonsense_word":"stuyer","train_images":["n03594734/n03594734_16188.JPEG","n03594734/n03594734_4275.JPEG","n03594734/n03594734_44736.JPEG","n03594734/n03594734_42955.JPEG","n03594734/n03594734_5654.JPEG"],"test_images":["n13104059/n13104059_3270.JPEG","n04451818/n04451818_23760.JPEG","n04451818/n04451818_16676.JPEG","n03594734/n03594734_22358.JPEG","n04370288/n04370288_11740.JPEG","n04254777/n04254777_4537.JPEG","n13104059/n13104059_11169.JPEG","n03405725/n03405725_27347.JPEG","n13134947/n13134947_784.JPEG","n04197391/n04197391_6908.JPEG","n02512053/n02512053_6922.JPEG","n04254777/n04254777_5810.JPEG","n13134947/n13134947_3866.JPEG","n03594734/n03594734_10951.JPEG","n03405725/n03405725_4407.JPEG","n03405725/n03405725_16863.JPEG","n04370288/n04370288_9173.JPEG","n04451818/n04451818_6253.JPEG","n03405725/n03405725_9111.JPEG","n13134947/n13134947_2717.JPEG","n04197391/n04197391_815.JPEG","n13134947/n13134947_2366.JPEG","n04451818/n04451818_7711.JPEG","n03405725/n03405725_12716.JPEG"],"trial_ID":12,"responses":["n04370288/n04370288_11740.JPEG","n03594734/n03594734_10951.JPEG"],"rt":10646},{"internal_node_id":"0.0-4.0","time_elapsed":116679,"trial_index":4,"trial_type":"generalization","sample_node":"n01539573","trial_type2":"10_ex","condition":"basic-level_condition","nonsense_word":"abroll","train_images":["n01539573/n01539573_11255.JPEG","n01539573/n01539573_1257.JPEG","n01539573/n01539573_3865.JPEG","n01539573/n01539573_2076.JPEG","n01539573/n01539573_691.JPEG","n01536186/n01536186_2170.JPEG","n01539573/n01539573_2752.JPEG","n01539573/n01539573_14392.JPEG","n01539573/n01539573_1471.JPEG","n01539573/n01539573_5075.JPEG"],"test_images":["n01621127/n01621127_18408.JPEG","n03800933/n03800933_27413.JPEG","n01621127/n01621127_18114.JPEG","n13134947/n13134947_5702.JPEG","n01613294/n01613294_679.JPEG","n13134947/n13134947_4286.JPEG","n13134947/n13134947_6916.JPEG","n01536186/n01536186_5493.JPEG","n01613294/n01613294_2527.JPEG","n03800933/n03800933_3469.JPEG","n03800933/n03800933_20182.JPEG","n03405725/n03405725_27801.JPEG","n13104059/n13104059_9973.JPEG","n01536644/n01536644_2231.JPEG","n01536186/n01536186_4599.JPEG","n13134947/n13134947_7559.JPEG","n01536644/n01536644_9091.JPEG","n13134947/n13134947_152.JPEG","n03800933/n03800933_27261.JPEG","n13134947/n13134947_13105.JPEG","n04451818/n04451818_138.JPEG","n13104059/n13104059_2132.JPEG","n13104059/n13104059_5709.JPEG","n13134947/n13134947_5691.JPEG"],"trial_ID":12,"responses":["n01621127/n01621127_18408.JPEG","n01613294/n01613294_679.JPEG","n01613294/n01613294_2527.JPEG","n01536644/n01536644_2231.JPEG","n01536186/n01536186_4599.JPEG","n01536644/n01536644_9091.JPEG"],"rt":14314},{"internal_node_id":"0.0-5.0","time_elapsed":126192,"trial_index":5,"trial_type":"generalization","sample_node":"n04380533","trial_type2":"5_ex","condition":"subordinate_condition","nonsense_word":"rephan","train_images":["n04380533/n04380533_3617.JPEG","n04380533/n04380533_6118.JPEG","n04380533/n04380533_3013.JPEG","n04380533/n04380533_1125.JPEG","n04380533/n04380533_5579.JPEG"],"test_images":["n04380533/n04380533_5108.JPEG","n04524313/n04524313_986.JPEG","n02512053/n02512053_8174.JPEG","n04379243/n04379243_5677.JPEG","n02512053/n02512053_10738.JPEG","n03367059/n03367059_4696.JPEG","n03800933/n03800933_20251.JPEG","n02512053/n02512053_7873.JPEG","n04379243/n04379243_5242.JPEG","n03800933/n03800933_21828.JPEG","n03051540/n03051540_20153.JPEG","n04524313/n04524313_5829.JPEG","n03367059/n03367059_9938.JPEG","n02512053/n02512053_10685.JPEG","n04379243/n04379243_13971.JPEG","n04380533/n04380533_1779.JPEG","n03051540/n03051540_12486.JPEG","n02512053/n02512053_11346.JPEG","n04524313/n04524313_1574.JPEG","n03051540/n03051540_19067.JPEG","n01503061/n01503061_12461.JPEG","n04379243/n04379243_12947.JPEG","n13134947/n13134947_11015.JPEG","n03800933/n03800933_6108.JPEG"],"trial_ID":12,"responses":["n04380533/n04380533_5108.JPEG","n04380533/n04380533_1779.JPEG"],"rt":8474},{"internal_node_id":"0.0-6.0","time_elapsed":138894,"trial_index":6,"trial_type":"generalization","sample_node":"n07740954","trial_type2":"5_ex","condition":"subordinate_condition","nonsense_word":"claine","train_images":["n07740954/n07740954_14888.JPEG","n07740954/n07740954_10820.JPEG","n07740954/n07740954_802.JPEG","n07740954/n07740954_15686.JPEG","n07740954/n07740954_1528.JPEG"],"test_images":["n07744246/n07744246_5514.JPEG","n13104059/n13104059_13880.JPEG","n13104059/n13104059_13270.JPEG","n07758680/n07758680_12759.JPEG","n07758680/n07758680_14751.JPEG","n04524313/n04524313_1985.JPEG","n07740954/n07740954_13847.JPEG","n04451818/n04451818_3940.JPEG","n07758680/n07758680_14325.JPEG","n04524313/n04524313_5298.JPEG","n07740220/n07740220_13228.JPEG","n04524313/n04524313_4472.JPEG","n03051540/n03051540_30598.JPEG","n07740220/n07740220_6179.JPEG","n01503061/n01503061_10633.JPEG","n01503061/n01503061_1996.JPEG","n03051540/n03051540_49220.JPEG","n04524313/n04524313_6527.JPEG","n02512053/n02512053_5168.JPEG","n02512053/n02512053_6809.JPEG","n07740954/n07740954_22120.JPEG","n04524313/n04524313_8671.JPEG","n01503061/n01503061_14426.JPEG","n03800933/n03800933_7479.JPEG"],"trial_ID":12,"responses":["n07740954/n07740954_13847.JPEG","n07740220/n07740220_13228.JPEG","n07740954/n07740954_22120.JPEG"],"rt":11670},{"internal_node_id":"0.0-7.0","time_elapsed":149258,"trial_index":7,"trial_type":"generalization","sample_node":"n03272010","trial_type2":"5_ex","condition":"subordinate_condition","nonsense_word":"pomple","train_images":["n03272010/n03272010_2880.JPEG","n03272010/n03272010_1294.JPEG","n03272010/n03272010_4774.JPEG","n03272010/n03272010_5019.JPEG","n03272010/n03272010_2539.JPEG"],"test_images":["n03405725/n03405725_3804.JPEG","n13104059/n13104059_4368.JPEG","n13104059/n13104059_4801.JPEG","n01503061/n01503061_9953.JPEG","n01503061/n01503061_14426.JPEG","n04451818/n04451818_7019.JPEG","n03272010/n03272010_176.JPEG","n03249569/n03249569_37625.JPEG","n13104059/n13104059_4627.JPEG","n03249569/n03249569_34879.JPEG","n03405725/n03405725_1480.JPEG","n03405725/n03405725_14949.JPEG","n01503061/n01503061_10695.JPEG","n03928116/n03928116_9344.JPEG","n13104059/n13104059_8998.JPEG","n02676566/n02676566_4373.JPEG","n02676566/n02676566_5735.JPEG","n03272010/n03272010_1400.JPEG","n13134947/n13134947_4642.JPEG","n04451818/n04451818_2158.JPEG","n13104059/n13104059_2268.JPEG","n13134947/n13134947_6175.JPEG","n01503061/n01503061_9907.JPEG","n03249569/n03249569_28995.JPEG"],"trial_ID":12,"responses":["n02676566/n02676566_4373.JPEG","n02676566/n02676566_5735.JPEG","n03272010/n03272010_1400.JPEG"],"rt":9334},{"internal_node_id":"0.0-8.0","time_elapsed":160658,"trial_index":8,"trial_type":"generalization","sample_node":"n02538010","trial_type2":"3_ex","condition":"subordinate_condition","nonsense_word":"coloost","train_images":["n02538010/n02538010_10974.JPEG","n02538010/n02538010_9455.JPEG","n02538010/n02538010_7307.JPEG"],"test_images":["n03051540/n03051540_12865.JPEG","n02586543/n02586543_444.JPEG","n03051540/n03051540_60189.JPEG","n04524313/n04524313_8936.JPEG","n02534734/n02534734_1653.JPEG","n03405725/n03405725_9592.JPEG","n03051540/n03051540_8840.JPEG","n03800933/n03800933_18457.JPEG","n02538010/n02538010_6293.JPEG","n03405725/n03405725_8728.JPEG","n04524313/n04524313_8811.JPEG","n02538010/n02538010_2780.JPEG","n02534734/n02534734_4968.JPEG","n03405725/n03405725_1713.JPEG","n13134947/n13134947_3877.JPEG","n02537525/n02537525_1363.JPEG","n02586543/n02586543_2976.JPEG","n03051540/n03051540_55656.JPEG","n04524313/n04524313_568.JPEG","n03800933/n03800933_6478.JPEG","n02537525/n02537525_172.JPEG","n03405725/n03405725_2793.JPEG","n03800933/n03800933_2460.JPEG","n03800933/n03800933_14694.JPEG"],"trial_ID":12,"responses":["n02586543/n02586543_444.JPEG","n02537525/n02537525_1363.JPEG","n02586543/n02586543_2976.JPEG","n02537525/n02537525_172.JPEG"],"rt":10366},{"internal_node_id":"0.0-9.0","time_elapsed":170256,"trial_index":9,"trial_type":"generalization","sample_node":"n03474779","trial_type2":"3_ex","condition":"subordinate_condition","nonsense_word":"canney","train_images":["n03474779/n03474779_11305.JPEG","n03474779/n03474779_1402.JPEG","n03474779/n03474779_4208.JPEG"],"test_images":["n03474779/n03474779_10575.JPEG","n13104059/n13104059_578.JPEG","n03136504/n03136504_9091.JPEG","n03405725/n03405725_2692.JPEG","n01503061/n01503061_13020.JPEG","n03405725/n03405725_3119.JPEG","n04154565/n04154565_18488.JPEG","n03481172/n03481172_1311.JPEG","n03051540/n03051540_20785.JPEG","n04154565/n04154565_18235.JPEG","n01503061/n01503061_9869.JPEG","n13104059/n13104059_14998.JPEG","n03481172/n03481172_13906.JPEG","n03136504/n03136504_8634.JPEG","n03051540/n03051540_8806.JPEG","n03800933/n03800933_20734.JPEG","n03051540/n03051540_52987.JPEG","n03051540/n03051540_20245.JPEG","n01503061/n01503061_657.JPEG","n13104059/n13104059_12174.JPEG","n13134947/n13134947_7474.JPEG","n01503061/n01503061_11899.JPEG","n03474779/n03474779_579.JPEG","n03800933/n03800933_2620.JPEG"],"trial_ID":12,"responses":["n03474779/n03474779_10575.JPEG","n03136504/n03136504_9091.JPEG","n03136504/n03136504_8634.JPEG","n03474779/n03474779_579.JPEG"],"rt":8567}],"__v":0}
{"_id":{"$oid":"591c899f803d090004bd99ab"},"data":[{"internal_node_id":"0.0-2.0","time_elapsed":35786,"trial_index":2,"trial_type":"generalization","sample_node":"n02690373","trial_type2":"10_ex","condition":"subordinate_condition","nonsense_word":"pomple","train_images":["n02690373/n02690373_3065.JPEG","n02690373/n02690373_563.JPEG","n02690373/n02690373_2150.JPEG","n02690373/n02690373_3613.JPEG","n02690373/n02690373_2435.JPEG","n02690373/n02690373_1074.JPEG","n02690373/n02690373_7740.JPEG","n02690373/n02690373_5130.JPEG","n02690373/n02690373_3312.JPEG","n02690373/n02690373_5182.JPEG"],"test_images":["n13134947/n13134947_4488.JPEG","n03800933/n03800933_8496.JPEG","n02512053/n02512053_1140.JPEG","n03335030/n03335030_4167.JPEG","n03051540/n03051540_52135.JPEG","n13134947/n13134947_5837.JPEG","n03405725/n03405725_17832.JPEG","n03335030/n03335030_3334.JPEG","n02690373/n02690373_68.JPEG","n02690373/n02690373_17937.JPEG","n13134947/n13134947_5689.JPEG","n04490091/n04490091_19855.JPEG","n04490091/n04490091_27269.JPEG","n03405725/n03405725_34959.JPEG","n02512053/n02512053_10575.JPEG","n04490091/n04490091_16210.JPEG","n01503061/n01503061_14220.JPEG","n03800933/n03800933_7696.JPEG","n04451818/n04451818_22932.JPEG","n04490091/n04490091_3864.JPEG","n03405725/n03405725_26597.JPEG","n03800933/n03800933_14652.JPEG","n02512053/n02512053_11904.JPEG","n03800933/n03800933_22357.JPEG"],"trial_ID":24,"responses":["n03335030/n03335030_4167.JPEG","n03335030/n03335030_3334.JPEG","n02690373/n02690373_68.JPEG","n02690373/n02690373_17937.JPEG"],"rt":25243},{"internal_node_id":"0.0-3.0","time_elapsed":60379,"trial_index":3,"trial_type":"generalization","sample_node":"n03622931","trial_type2":"1_ex","condition":"subordinate_condition","nonsense_word":"canney","train_images":["n03622931/n03622931_12430.JPEG"],"test_images":["n13134947/n13134947_2717.JPEG","n02752496/n02752496_8557.JPEG","n13104059/n13104059_11169.JPEG","n13134947/n13134947_784.JPEG","n13134947/n13134947_3866.JPEG","n04197391/n04197391_2323.JPEG","n03405725/n03405725_27347.JPEG","n04451818/n04451818_23760.JPEG","n03405725/n03405725_16863.JPEG","n04451818/n04451818_16676.JPEG","n04451818/n04451818_7711.JPEG","n03405725/n03405725_9111.JPEG","n03622931/n03622931_10061.JPEG","n04489008/n04489008_11712.JPEG","n02512053/n02512053_6922.JPEG","n03622931/n03622931_13232.JPEG","n04489008/n04489008_1192.JPEG","n03405725/n03405725_4407.JPEG","n04489008/n04489008_20600.JPEG","n13104059/n13104059_3270.JPEG","n02752496/n02752496_4812.JPEG","n13134947/n13134947_2366.JPEG","n04451818/n04451818_6253.JPEG","n03405725/n03405725_12716.JPEG"],"trial_ID":24,"responses":["n02752496/n02752496_8557.JPEG","n03622931/n03622931_10061.JPEG","n03622931/n03622931_13232.JPEG","n02752496/n02752496_4812.JPEG"],"rt":23562},{"internal_node_id":"0.0-4.0","time_elapsed":88996,"trial_index":4,"trial_type":"generalization","sample_node":"n01536186","trial_type2":"5_ex","condition":"subordinate_condition","nonsense_word":"stuyer","train_images":["n01536186/n01536186_5184.JPEG","n01536186/n01536186_5222.JPEG","n01536186/n01536186_2170.JPEG","n01536186/n01536186_560.JPEG","n01536186/n01536186_1398.JPEG"],"test_images":["n01613294/n01613294_679.JPEG","n01621127/n01621127_18408.JPEG","n13104059/n13104059_9973.JPEG","n03800933/n03800933_3469.JPEG","n01536644/n01536644_9091.JPEG","n03800933/n03800933_27413.JPEG","n03800933/n03800933_20182.JPEG","n03800933/n03800933_27261.JPEG","n13134947/n13134947_6916.JPEG","n01536186/n01536186_4599.JPEG","n01621127/n01621127_18114.JPEG","n01613294/n01613294_2527.JPEG","n01536644/n01536644_2231.JPEG","n13134947/n13134947_7559.JPEG","n13134947/n13134947_13105.JPEG","n13134947/n13134947_5702.JPEG","n04451818/n04451818_138.JPEG","n13104059/n13104059_2132.JPEG","n13134947/n13134947_5691.JPEG","n13134947/n13134947_152.JPEG","n01536186/n01536186_5493.JPEG","n13104059/n13104059_5709.JPEG","n03405725/n03405725_27801.JPEG","n13134947/n13134947_4286.JPEG"],"trial_ID":24,"responses":["n01613294/n01613294_679.JPEG","n01621127/n01621127_18408.JPEG","n01536644/n01536644_9091.JPEG","n01536186/n01536186_4599.JPEG","n01621127/n01621127_18114.JPEG","n01613294/n01613294_2527.JPEG","n01536644/n01536644_2231.JPEG"],"rt":27583},{"internal_node_id":"0.0-5.0","time_elapsed":106826,"trial_index":5,"trial_type":"generalization","sample_node":"n03201035","trial_type2":"5_ex","condition":"subordinate_condition","nonsense_word":"rephan","train_images":["n03201035/n03201035_3257.JPEG","n03201035/n03201035_3031.JPEG","n03201035/n03201035_1278.JPEG","n03201035/n03201035_950.JPEG","n03201035/n03201035_728.JPEG"],"test_images":["n03201035/n03201035_4732.JPEG","n01503061/n01503061_12461.JPEG","n13134947/n13134947_11015.JPEG","n03051540/n03051540_20153.JPEG","n03051540/n03051540_19067.JPEG","n03620967/n03620967_7776.JPEG","n03636248/n03636248_5923.JPEG","n02512053/n02512053_10738.JPEG","n03201035/n03201035_2196.JPEG","n03800933/n03800933_20251.JPEG","n03800933/n03800933_6108.JPEG","n03800933/n03800933_21828.JPEG","n03051540/n03051540_12486.JPEG","n02512053/n02512053_8174.JPEG","n02512053/n02512053_7873.JPEG","n02512053/n02512053_10685.JPEG","n04524313/n04524313_1574.JPEG","n03620967/n03620967_7807.JPEG","n03636248/n03636248_14561.JPEG","n03001627/n03001627_4257.JPEG","n04524313/n04524313_5829.JPEG","n03636248/n03636248_11154.JPEG","n04524313/n04524313_986.JPEG","n02512053/n02512053_11346.JPEG"],"trial_ID":24,"responses":["n03201035/n03201035_4732.JPEG","n03620967/n03620967_7776.JPEG","n03201035/n03201035_2196.JPEG","n03636248/n03636248_11154.JPEG"],"rt":16613},{"internal_node_id":"0.0-6.0","time_elapsed":118554,"trial_index":6,"trial_type":"generalization","sample_node":"n07758680","trial_type2":"10_ex","condition":"basic-level_condition","nonsense_word":"aftion","train_images":["n07758680/n07758680_10971.JPEG","n07758680/n07758680_17609.JPEG","n07758680/n07758680_2842.JPEG","n07758680/n07758680_5952.JPEG","n07758680/n07758680_3041.JPEG","n07758680/n07758680_11408.JPEG","n07760755/n07760755_2193.JPEG","n07758680/n07758680_13038.JPEG","n07758680/n07758680_8971.JPEG","n07758680/n07758680_19948.JPEG"],"test_images":["n07759194/n07759194_145.JPEG","n07744246/n07744246_9977.JPEG","n07760755/n07760755_705.JPEG","n01503061/n01503061_1996.JPEG","n01503061/n01503061_14426.JPEG","n03051540/n03051540_49220.JPEG","n07739125/n07739125_10066.JPEG","n04524313/n04524313_5298.JPEG","n07744246/n07744246_7162.JPEG","n07744246/n07744246_11368.JPEG","n04524313/n04524313_1985.JPEG","n07759194/n07759194_4679.JPEG","n04524313/n04524313_8671.JPEG","n01503061/n01503061_10633.JPEG","n13104059/n13104059_13880.JPEG","n03800933/n03800933_7479.JPEG","n04524313/n04524313_6527.JPEG","n02512053/n02512053_5168.JPEG","n03051540/n03051540_30598.JPEG","n02512053/n02512053_6809.JPEG","n04524313/n04524313_4472.JPEG","n13104059/n13104059_13270.JPEG","n04451818/n04451818_3940.JPEG","n07760755/n07760755_908.JPEG"],"trial_ID":24,"responses":["n07759194/n07759194_145.JPEG","n07744246/n07744246_9977.JPEG","n07760755/n07760755_705.JPEG","n01503061/n01503061_1996.JPEG","n07760755/n07760755_908.JPEG"],"rt":10700},{"internal_node_id":"0.0-7.0","time_elapsed":131747,"trial_index":7,"trial_type":"generalization","sample_node":"n02803666","trial_type2":"5_ex","condition":"subordinate_condition","nonsense_word":"coloost","train_images":["n02803666/n02803666_596.JPEG","n02803666/n02803666_8583.JPEG","n02803666/n02803666_6570.JPEG","n02803666/n02803666_18995.JPEG","n02803666/n02803666_2431.JPEG"],"test_images":["n03467517/n03467517_23315.JPEG","n13104059/n13104059_8998.JPEG","n13104059/n13104059_4801.JPEG","n01503061/n01503061_9953.JPEG","n01503061/n01503061_14426.JPEG","n13104059/n13104059_2268.JPEG","n13104059/n13104059_4368.JPEG","n03405725/n03405725_14949.JPEG","n13134947/n13134947_6175.JPEG","n02803666/n02803666_9834.JPEG","n13104059/n13104059_4627.JPEG","n01503061/n01503061_9907.JPEG","n03467517/n03467517_17292.JPEG","n04387400/n04387400_15799.JPEG","n04451818/n04451818_7019.JPEG","n03467517/n03467517_14895.JPEG","n03405725/n03405725_1480.JPEG","n02803666/n02803666_11715.JPEG","n04451818/n04451818_2158.JPEG","n03467517/n03467517_17583.JPEG","n03405725/n03405725_3804.JPEG","n13134947/n13134947_4642.JPEG","n04387400/n04387400_12406.JPEG","n01503061/n01503061_10695.JPEG"],"trial_ID":24,"responses":["n02803666/n02803666_11715.JPEG"],"rt":12158},{"internal_node_id":"0.0-8.0","time_elapsed":152856,"trial_index":8,"trial_type":"generalization","sample_node":"n02537525","trial_type2":"10_ex","condition":"subordinate_condition","nonsense_word":"claine","train_images":["n02537525/n02537525_792.JPEG","n02537525/n02537525_964.JPEG","n02537525/n02537525_3205.JPEG","n02537525/n02537525_251.JPEG","n02537525/n02537525_4254.JPEG","n02537525/n02537525_3452.JPEG","n02537525/n02537525_4009.JPEG","n02537525/n02537525_1418.JPEG","n02537525/n02537525_1532.JPEG","n02537525/n02537525_3987.JPEG"],"test_images":["n03051540/n03051540_60189.JPEG","n04524313/n04524313_8936.JPEG","n02537525/n02537525_400.JPEG","n03051540/n03051540_55656.JPEG","n04524313/n04524313_568.JPEG","n03051540/n03051540_8840.JPEG","n03405725/n03405725_9592.JPEG","n03405725/n03405725_2793.JPEG","n03800933/n03800933_6478.JPEG","n02586543/n02586543_444.JPEG","n03800933/n03800933_18457.JPEG","n02534734/n02534734_1653.JPEG","n03405725/n03405725_8728.JPEG","n13134947/n13134947_3877.JPEG","n02538010/n02538010_10672.JPEG","n03800933/n03800933_14694.JPEG","n03800933/n03800933_2460.JPEG","n03405725/n03405725_1713.JPEG","n04524313/n04524313_8811.JPEG","n02586543/n02586543_2976.JPEG","n03051540/n03051540_12865.JPEG","n02538010/n02538010_8365.JPEG","n02534734/n02534734_4968.JPEG","n02537525/n02537525_3988.JPEG"],"trial_ID":24,"responses":["n02537525/n02537525_400.JPEG","n02586543/n02586543_444.JPEG","n02534734/n02534734_1653.JPEG","n02538010/n02538010_10672.JPEG","n02586543/n02586543_2976.JPEG","n02538010/n02538010_8365.JPEG","n02534734/n02534734_4968.JPEG","n02537525/n02537525_3988.JPEG"],"rt":20079},{"internal_node_id":"0.0-9.0","time_elapsed":167507,"trial_index":9,"trial_type":"generalization","sample_node":"n02783035","trial_type2":"5_ex","condition":"subordinate_condition","nonsense_word":"abroll","train_images":["n02783035/n02783035_559.JPEG","n02783035/n02783035_739.JPEG","n02783035/n02783035_708.JPEG","n02783035/n02783035_1451.JPEG","n02783035/n02783035_840.JPEG"],"test_images":["n13104059/n13104059_12174.JPEG","n04140064/n04140064_10299.JPEG","n02783035/n02783035_1352.JPEG","n13104059/n13104059_578.JPEG","n03405725/n03405725_2692.JPEG","n03800933/n03800933_2620.JPEG","n04154565/n04154565_12843.JPEG","n04154565/n04154565_5055.JPEG","n03051540/n03051540_8806.JPEG","n13104059/n13104059_14998.JPEG","n13134947/n13134947_7474.JPEG","n03800933/n03800933_20734.JPEG","n02783035/n02783035_1579.JPEG","n01503061/n01503061_657.JPEG","n01503061/n01503061_13020.JPEG","n03051540/n03051540_52987.JPEG","n03051540/n03051540_20245.JPEG","n03405725/n03405725_3119.JPEG","n02966545/n02966545_8273.JPEG","n04140064/n04140064_19018.JPEG","n01503061/n01503061_9869.JPEG","n03051540/n03051540_20785.JPEG","n02966545/n02966545_4613.JPEG","n01503061/n01503061_11899.JPEG"],"trial_ID":24,"responses":["n02783035/n02783035_1352.JPEG","n02966545/n02966545_8273.JPEG","n02966545/n02966545_4613.JPEG"],"rt":13625}],"__v":0}
