{"_id":{"$oid":"59122af134dfb20004bad601"},"data":[{"internal_node_id":"0.0-2.0","time_elapsed":41317,"trial_index":2,"trial_type":"generalization","sample_node":"n03594734","trial_type2":"3_ex","condition":"subordinate_condition","nonsense_word":"stuyer","train_images":["n03594734/n03594734_4453.JPEG","n03594734/n03594734_3808.JPEG","n03594734/n03594734_5358.JPEG"],"test_images":["n03594734/n03594734_28057.JPEG","n03594734/n03594734_32526.JPEG","n03800933/n03800933_4042.JPEG","n04370288/n04370288_12347.JPEG","n13134947/n13134947_305.JPEG","n01503061/n01503061_3222.JPEG","n03405725/n03405725_28986.JPEG","n04451818/n04451818_21845.JPEG","n01503061/n01503061_11162.JPEG","n01503061/n01503061_15191.JPEG","n01503061/n01503061_350.JPEG","n01503061/n01503061_13700.JPEG","n04254777/n04254777_18265.JPEG","n01503061/n01503061_10393.JPEG","n03800933/n03800933_2658.JPEG","n01503061/n01503061_14540.JPEG","n04197391/n04197391_8590.JPEG","n03405725/n03405725_31342.JPEG","n03405725/n03405725_1837.JPEG","n04197391/n04197391_12978.JPEG","n04370288/n04370288_12211.JPEG","n01503061/n01503061_21992.JPEG","n03405725/n03405725_30668.JPEG","n04197391/n04197391_8402.JPEG"],"trial_ID":3,"responses":["n03594734/n03594734_28057.JPEG","n03594734/n03594734_32526.JPEG"],"rt":36897},{"internal_node_id":"0.0-3.0","time_elapsed":76679,"trial_index":3,"trial_type":"generalization","sample_node":"n01536644","trial_type2":"3_ex","condition":"subordinate_condition","nonsense_word":"stuyer","train_images":["n01536644/n01536644_6207.JPEG","n01536644/n01536644_1818.JPEG","n01536644/n01536644_7621.JPEG"],"test_images":["n02512053/n02512053_8380.JPEG","n01536186/n01536186_1848.JPEG","n01536644/n01536644_8008.JPEG","n02512053/n02512053_7664.JPEG","n03051540/n03051540_13525.JPEG","n04524313/n04524313_8416.JPEG","n01613294/n01613294_3086.JPEG","n01536644/n01536644_944.JPEG","n13134947/n13134947_454.JPEG","n02512053/n02512053_10013.JPEG","n01621127/n01621127_8966.JPEG","n03405725/n03405725_2367.JPEG","n01613294/n01613294_4638.JPEG","n13104059/n13104059_3562.JPEG","n13104059/n13104059_6291.JPEG","n03405725/n03405725_257.JPEG","n01621127/n01621127_13317.JPEG","n04451818/n04451818_20006.JPEG","n13134947/n13134947_5103.JPEG","n13104059/n13104059_14236.JPEG","n13104059/n13104059_9867.JPEG","n04451818/n04451818_5588.JPEG","n02512053/n02512053_3204.JPEG","n01536186/n01536186_1110.JPEG"],"trial_ID":3,"responses":["n01536644/n01536644_944.JPEG","n01536186/n01536186_1110.JPEG"],"rt":34359},{"internal_node_id":"0.0-4.0","time_elapsed":90678,"trial_index":4,"trial_type":"generalization","sample_node":"n02587300","trial_type2":"1_ex","condition":"subordinate_condition","nonsense_word":"stuyer","train_images":["n02587300/n02587300_6699.JPEG"],"test_images":["n03405725/n03405725_3301.JPEG","n04524313/n04524313_2424.JPEG","n03405725/n03405725_4397.JPEG","n02534734/n02534734_14403.JPEG","n04451818/n04451818_15469.JPEG","n13104059/n13104059_371.JPEG","n04524313/n04524313_24647.JPEG","n03051540/n03051540_11027.JPEG","n02587051/n02587051_739.JPEG","n04451818/n04451818_641.JPEG","n02537085/n02537085_3809.JPEG","n13104059/n13104059_1645.JPEG","n02587051/n02587051_241.JPEG","n01503061/n01503061_14451.JPEG","n02587300/n02587300_4980.JPEG","n02587300/n02587300_1824.JPEG","n03405725/n03405725_31946.JPEG","n02537085/n02537085_4944.JPEG","n13134947/n13134947_2021.JPEG","n02537085/n02537085_3992.JPEG","n01503061/n01503061_1306.JPEG","n04451818/n04451818_26704.JPEG","n03800933/n03800933_22705.JPEG","n03405725/n03405725_1436.JPEG"],"trial_ID":3,"responses":["n02587051/n02587051_739.JPEG","n02587051/n02587051_241.JPEG","n02587300/n02587300_1824.JPEG","n02537085/n02537085_4944.JPEG","n02537085/n02537085_3992.JPEG"],"rt":12989},{"internal_node_id":"0.0-5.0","time_elapsed":128380,"trial_index":5,"trial_type":"generalization","sample_node":"n04154565","trial_type2":"10_ex","condition":"basic-level_condition","nonsense_word":"stuyer","train_images":["n04154565/n04154565_8349.JPEG","n04154565/n04154565_6089.JPEG","n04154565/n04154565_3172.JPEG","n04154565/n04154565_11899.JPEG","n04154565/n04154565_13745.JPEG","n03361683/n03361683_1083.JPEG","n04154565/n04154565_2646.JPEG","n04154565/n04154565_12968.JPEG","n04154565/n04154565_19082.JPEG","n04154565/n04154565_7807.JPEG"],"test_images":["n03405725/n03405725_33627.JPEG","n03800933/n03800933_24210.JPEG","n03923692/n03923692_1578.JPEG","n03405725/n03405725_16868.JPEG","n03405725/n03405725_2471.JPEG","n03361683/n03361683_615.JPEG","n03481172/n03481172_4042.JPEG","n03481172/n03481172_5916.JPEG","n03405725/n03405725_8838.JPEG","n03923692/n03923692_2594.JPEG","n13104059/n13104059_9052.JPEG","n03361683/n03361683_1138.JPEG","n03800933/n03800933_15410.JPEG","n03051540/n03051540_23015.JPEG","n03405725/n03405725_18234.JPEG","n03405725/n03405725_14041.JPEG","n03481172/n03481172_15795.JPEG","n02512053/n02512053_13073.JPEG","n13104059/n13104059_13281.JPEG","n03405725/n03405725_2938.JPEG","n03405725/n03405725_5215.JPEG","n03405725/n03405725_7947.JPEG","n03481172/n03481172_3886.JPEG","n03405725/n03405725_14211.JPEG"],"trial_ID":3,"responses":["n03923692/n03923692_1578.JPEG","n03361683/n03361683_615.JPEG","n03923692/n03923692_2594.JPEG","n03361683/n03361683_1138.JPEG"],"rt":36697},{"internal_node_id":"0.0-6.0","time_elapsed":153911,"trial_index":6,"trial_type":"generalization","sample_node":"n07740954","trial_type2":"5_ex","condition":"subordinate_condition","nonsense_word":"stuyer","train_images":["n07740954/n07740954_12746.JPEG","n07740954/n07740954_15874.JPEG","n07740954/n07740954_186.JPEG","n07740954/n07740954_10874.JPEG","n07740954/n07740954_3902.JPEG"],"test_images":["n04524313/n04524313_9535.JPEG","n03405725/n03405725_34238.JPEG","n01503061/n01503061_4552.JPEG","n03051540/n03051540_28593.JPEG","n07740220/n07740220_2232.JPEG","n04524313/n04524313_795.JPEG","n03405725/n03405725_33682.JPEG","n01503061/n01503061_3816.JPEG","n01503061/n01503061_9347.JPEG","n03405725/n03405725_6074.JPEG","n07740954/n07740954_17105.JPEG","n04524313/n04524313_5650.JPEG","n07744246/n07744246_17216.JPEG","n07740954/n07740954_3783.JPEG","n07758680/n07758680_13731.JPEG","n04524313/n04524313_3921.JPEG","n02512053/n02512053_7045.JPEG","n07740220/n07740220_9012.JPEG","n03405725/n03405725_3917.JPEG","n03405725/n03405725_11070.JPEG","n04524313/n04524313_8720.JPEG","n02512053/n02512053_6964.JPEG","n07744246/n07744246_3525.JPEG","n07744246/n07744246_12334.JPEG"],"trial_ID":3,"responses":["n07740220/n07740220_2232.JPEG","n07740954/n07740954_17105.JPEG","n07740220/n07740220_9012.JPEG","n07744246/n07744246_3525.JPEG","n07744246/n07744246_12334.JPEG"],"rt":24525},{"internal_node_id":"0.0-7.0","time_elapsed":179332,"trial_index":7,"trial_type":"generalization","sample_node":"n03201035","trial_type2":"10_ex","condition":"subordinate_condition","nonsense_word":"stuyer","train_images":["n03201035/n03201035_7452.JPEG","n03201035/n03201035_8254.JPEG","n03201035/n03201035_93.JPEG","n03201035/n03201035_1661.JPEG","n03201035/n03201035_3692.JPEG","n03201035/n03201035_8452.JPEG","n03201035/n03201035_9398.JPEG","n03201035/n03201035_561.JPEG","n03201035/n03201035_1282.JPEG","n03201035/n03201035_7000.JPEG"],"test_images":["n04524313/n04524313_353.JPEG","n13134947/n13134947_2598.JPEG","n13104059/n13104059_7664.JPEG","n03636248/n03636248_2148.JPEG","n04524313/n04524313_6208.JPEG","n03620967/n03620967_7066.JPEG","n02512053/n02512053_7690.JPEG","n03001627/n03001627_1108.JPEG","n04524313/n04524313_4913.JPEG","n03201035/n03201035_1999.JPEG","n03201035/n03201035_5556.JPEG","n03620967/n03620967_1360.JPEG","n04524313/n04524313_9050.JPEG","n04524313/n04524313_319.JPEG","n03001627/n03001627_808.JPEG","n13134947/n13134947_6868.JPEG","n04524313/n04524313_7625.JPEG","n04524313/n04524313_8020.JPEG","n04524313/n04524313_8483.JPEG","n04524313/n04524313_4333.JPEG","n02512053/n02512053_153.JPEG","n04524313/n04524313_2348.JPEG","n02512053/n02512053_8625.JPEG","n03001627/n03001627_6360.JPEG"],"trial_ID":3,"responses":["n03620967/n03620967_7066.JPEG","n03201035/n03201035_1999.JPEG","n03201035/n03201035_5556.JPEG"],"rt":24418},{"internal_node_id":"0.0-8.0","time_elapsed":192335,"trial_index":8,"trial_type":"generalization","sample_node":"n02803666","trial_type2":"3_ex","condition":"subordinate_condition","nonsense_word":"stuyer","train_images":["n02803666/n02803666_18882.JPEG","n02803666/n02803666_8172.JPEG","n02803666/n02803666_10532.JPEG"],"test_images":["n04451818/n04451818_7186.JPEG","n13104059/n13104059_7655.JPEG","n03405725/n03405725_29694.JPEG","n03405725/n03405725_12903.JPEG","n02803666/n02803666_15872.JPEG","n02803666/n02803666_3146.JPEG","n04524313/n04524313_1318.JPEG","n13104059/n13104059_11280.JPEG","n04387400/n04387400_11071.JPEG","n03051540/n03051540_39426.JPEG","n03928116/n03928116_37995.JPEG","n04524313/n04524313_193.JPEG","n04524313/n04524313_5934.JPEG","n03405725/n03405725_13367.JPEG","n13134947/n13134947_5162.JPEG","n13104059/n13104059_8514.JPEG","n03405725/n03405725_29460.JPEG","n03928116/n03928116_8266.JPEG","n03467517/n03467517_9788.JPEG","n03928116/n03928116_35786.JPEG","n13104059/n13104059_2783.JPEG","n04451818/n04451818_11999.JPEG","n03405725/n03405725_2779.JPEG","n04387400/n04387400_17058.JPEG"],"trial_ID":3,"responses":["n02803666/n02803666_15872.JPEG","n02803666/n02803666_3146.JPEG"],"rt":11991},{"internal_node_id":"0.0-9.0","time_elapsed":201498,"trial_index":9,"trial_type":"generalization","sample_node":"n02690373","trial_type2":"1_ex","condition":"subordinate_condition","nonsense_word":"stuyer","train_images":["n02690373/n02690373_6698.JPEG"],"test_images":["n04490091/n04490091_16080.JPEG","n04451818/n04451818_14794.JPEG","n03405725/n03405725_13521.JPEG","n03051540/n03051540_8755.JPEG","n04451818/n04451818_12335.JPEG","n03335030/n03335030_17079.JPEG","n02690373/n02690373_4299.JPEG","n04451818/n04451818_1952.JPEG","n13104059/n13104059_9916.JPEG","n13104059/n13104059_8540.JPEG","n02690373/n02690373_4943.JPEG","n04451818/n04451818_11999.JPEG","n13104059/n13104059_9576.JPEG","n13104059/n13104059_10152.JPEG","n13104059/n13104059_1988.JPEG","n13104059/n13104059_504.JPEG","n04451818/n04451818_27644.JPEG","n04490091/n04490091_30141.JPEG","n03405725/n03405725_25186.JPEG","n03335030/n03335030_13194.JPEG","n04490091/n04490091_16551.JPEG","n04490091/n04490091_22324.JPEG","n03051540/n03051540_20380.JPEG","n13104059/n13104059_7702.JPEG"],"trial_ID":3,"responses":["n03335030/n03335030_17079.JPEG","n02690373/n02690373_4299.JPEG","n02690373/n02690373_4943.JPEG"],"rt":8152}],"__v":0}
{"_id":{"$oid":"59122b3f34dfb20004bad602"},"data":[{"internal_node_id":"0.0-2.0","time_elapsed":71079,"trial_index":2,"trial_type":"generalization","sample_node":"n04197391","trial_type2":"3_ex","condition":"basic-level_condition","nonsense_word":"coloost","train_images":["n04197391/n04197391_7819.JPEG","n03978966/n03978966_14608.JPEG","n04197391/n04197391_1732.JPEG"],"test_images":["n01503061/n01503061_21992.JPEG","n03405725/n03405725_28986.JPEG","n03800933/n03800933_4042.JPEG","n03978966/n03978966_5453.JPEG","n03405725/n03405725_30668.JPEG","n03238879/n03238879_23015.JPEG","n01503061/n01503061_14540.JPEG","n04451818/n04451818_21845.JPEG","n13134947/n13134947_305.JPEG","n03800933/n03800933_2658.JPEG","n01503061/n01503061_10393.JPEG","n04254777/n04254777_14273.JPEG","n03238879/n03238879_13780.JPEG","n04254777/n04254777_16993.JPEG","n03405725/n03405725_31342.JPEG","n01503061/n01503061_11162.JPEG","n01503061/n01503061_13700.JPEG","n03405725/n03405725_1837.JPEG","n01503061/n01503061_350.JPEG","n04254777/n04254777_13374.JPEG","n03978966/n03978966_2714.JPEG","n01503061/n01503061_15191.JPEG","n01503061/n01503061_3222.JPEG","n04254777/n04254777_17120.JPEG"],"trial_ID":6,"responses":["n03978966/n03978966_5453.JPEG","n03238879/n03238879_23015.JPEG","n03238879/n03238879_13780.JPEG","n03978966/n03978966_2714.JPEG","n04254777/n04254777_17120.JPEG"],"rt":38495},{"internal_node_id":"0.0-3.0","time_elapsed":116188,"trial_index":3,"trial_type":"generalization","sample_node":"n01536644","trial_type2":"5_ex","condition":"subordinate_condition","nonsense_word":"coloost","train_images":["n01536644/n01536644_6207.JPEG","n01536644/n01536644_7621.JPEG","n01536644/n01536644_5158.JPEG","n01536644/n01536644_1818.JPEG","n01536644/n01536644_5817.JPEG"],"test_images":["n01613294/n01613294_4638.JPEG","n04451818/n04451818_5588.JPEG","n13104059/n13104059_6291.JPEG","n03405725/n03405725_2367.JPEG","n01536186/n01536186_1848.JPEG","n01536644/n01536644_8008.JPEG","n13134947/n13134947_454.JPEG","n01536644/n01536644_944.JPEG","n02512053/n02512053_7664.JPEG","n03051540/n03051540_13525.JPEG","n01536186/n01536186_1110.JPEG","n13104059/n13104059_3562.JPEG","n02512053/n02512053_8380.JPEG","n04451818/n04451818_20006.JPEG","n01621127/n01621127_8966.JPEG","n01613294/n01613294_3086.JPEG","n04524313/n04524313_8416.JPEG","n02512053/n02512053_10013.JPEG","n01621127/n01621127_13317.JPEG","n13104059/n13104059_14236.JPEG","n13104059/n13104059_9867.JPEG","n02512053/n02512053_3204.JPEG","n03405725/n03405725_257.JPEG","n13134947/n13134947_5103.JPEG"],"trial_ID":6,"responses":["n01536644/n01536644_8008.JPEG","n01536644/n01536644_944.JPEG","n01536186/n01536186_1110.JPEG"],"rt":44092},{"internal_node_id":"0.0-4.0","time_elapsed":144423,"trial_index":4,"trial_type":"generalization","sample_node":"n02537525","trial_type2":"10_ex","condition":"subordinate_condition","nonsense_word":"coloost","train_images":["n02537525/n02537525_7022.JPEG","n02537525/n02537525_903.JPEG","n02537525/n02537525_753.JPEG","n02537525/n02537525_3939.JPEG","n02537525/n02537525_1372.JPEG","n02537525/n02537525_3769.JPEG","n02537525/n02537525_355.JPEG","n02537525/n02537525_2766.JPEG","n02537525/n02537525_4269.JPEG","n02537525/n02537525_209.JPEG"],"test_images":["n03405725/n03405725_3301.JPEG","n02534734/n02534734_4653.JPEG","n13134947/n13134947_2021.JPEG","n03051540/n03051540_11027.JPEG","n02537525/n02537525_3555.JPEG","n01503061/n01503061_14451.JPEG","n04524313/n04524313_24647.JPEG","n03405725/n03405725_31946.JPEG","n02586543/n02586543_13444.JPEG","n13104059/n13104059_371.JPEG","n03405725/n03405725_4397.JPEG","n04451818/n04451818_15469.JPEG","n03405725/n03405725_1436.JPEG","n02586543/n02586543_6858.JPEG","n04524313/n04524313_2424.JPEG","n04451818/n04451818_641.JPEG","n01503061/n01503061_1306.JPEG","n02538010/n02538010_7354.JPEG","n13104059/n13104059_1645.JPEG","n03800933/n03800933_22705.JPEG","n04451818/n04451818_26704.JPEG","n02537525/n02537525_3679.JPEG","n02538010/n02538010_3808.JPEG","n02586543/n02586543_12935.JPEG"],"trial_ID":6,"responses":["n02534734/n02534734_4653.JPEG","n02537525/n02537525_3555.JPEG","n02586543/n02586543_13444.JPEG","n02538010/n02538010_7354.JPEG","n02537525/n02537525_3679.JPEG","n02538010/n02538010_3808.JPEG","n02586543/n02586543_12935.JPEG"],"rt":27227},{"internal_node_id":"0.0-5.0","time_elapsed":159123,"trial_index":5,"trial_type":"generalization","sample_node":"n03923692","trial_type2":"1_ex","condition":"subordinate_condition","nonsense_word":"coloost","train_images":["n03923692/n03923692_1133.JPEG"],"test_images":["n03481172/n03481172_15795.JPEG","n03405725/n03405725_18234.JPEG","n03405725/n03405725_7947.JPEG","n03051540/n03051540_23015.JPEG","n03405725/n03405725_5215.JPEG","n03361683/n03361683_956.JPEG","n03800933/n03800933_24210.JPEG","n03800933/n03800933_15410.JPEG","n03405725/n03405725_2471.JPEG","n03481172/n03481172_4042.JPEG","n02512053/n02512053_13073.JPEG","n03405725/n03405725_16868.JPEG","n03361683/n03361683_582.JPEG","n13104059/n13104059_13281.JPEG","n03405725/n03405725_2938.JPEG","n03923692/n03923692_2928.JPEG","n03481172/n03481172_5916.JPEG","n03405725/n03405725_14041.JPEG","n13104059/n13104059_9052.JPEG","n03481172/n03481172_3886.JPEG","n03923692/n03923692_3353.JPEG","n03405725/n03405725_14211.JPEG","n03405725/n03405725_8838.JPEG","n03405725/n03405725_33627.JPEG"],"trial_ID":6,"responses":["n03361683/n03361683_956.JPEG","n03361683/n03361683_582.JPEG","n03923692/n03923692_2928.JPEG","n03923692/n03923692_3353.JPEG"],"rt":13690},{"internal_node_id":"0.0-6.0","time_elapsed":176038,"trial_index":6,"trial_type":"generalization","sample_node":"n07744559","trial_type2":"10_ex","condition":"subordinate_condition","nonsense_word":"coloost","train_images":["n07744559/n07744559_2641.JPEG","n07744559/n07744559_4685.JPEG","n07744559/n07744559_5173.JPEG","n07744559/n07744559_2132.JPEG","n07744559/n07744559_5226.JPEG","n07744559/n07744559_3235.JPEG","n07744559/n07744559_3971.JPEG","n07744559/n07744559_3861.JPEG","n07744559/n07744559_6531.JPEG","n07744559/n07744559_1412.JPEG"],"test_images":["n04524313/n04524313_5650.JPEG","n07744559/n07744559_1080.JPEG","n04524313/n04524313_8720.JPEG","n03405725/n03405725_33682.JPEG","n04524313/n04524313_9535.JPEG","n02512053/n02512053_7045.JPEG","n07744682/n07744682_611.JPEG","n04524313/n04524313_795.JPEG","n03405725/n03405725_11070.JPEG","n07758680/n07758680_4207.JPEG","n03405725/n03405725_3917.JPEG","n07758680/n07758680_2167.JPEG","n07744682/n07744682_5689.JPEG","n03405725/n03405725_6074.JPEG","n07739125/n07739125_973.JPEG","n04524313/n04524313_3921.JPEG","n01503061/n01503061_9347.JPEG","n07744559/n07744559_7111.JPEG","n01503061/n01503061_3816.JPEG","n03051540/n03051540_28593.JPEG","n01503061/n01503061_4552.JPEG","n07739125/n07739125_1291.JPEG","n02512053/n02512053_6964.JPEG","n03405725/n03405725_34238.JPEG"],"trial_ID":6,"responses":["n07744559/n07744559_1080.JPEG","n07744559/n07744559_7111.JPEG"],"rt":15903},{"internal_node_id":"0.0-7.0","time_elapsed":203979,"trial_index":7,"trial_type":"generalization","sample_node":"n03201035","trial_type2":"5_ex","condition":"subordinate_condition","nonsense_word":"coloost","train_images":["n03201035/n03201035_9398.JPEG","n03201035/n03201035_7000.JPEG","n03201035/n03201035_8452.JPEG","n03201035/n03201035_1661.JPEG","n03201035/n03201035_3692.JPEG"],"test_images":["n13134947/n13134947_6868.JPEG","n03001627/n03001627_808.JPEG","n02512053/n02512053_8625.JPEG","n04524313/n04524313_4913.JPEG","n04524313/n04524313_6208.JPEG","n04524313/n04524313_7625.JPEG","n03001627/n03001627_6360.JPEG","n02512053/n02512053_7690.JPEG","n03620967/n03620967_7066.JPEG","n04524313/n04524313_353.JPEG","n03201035/n03201035_1999.JPEG","n04524313/n04524313_319.JPEG","n13104059/n13104059_7664.JPEG","n04524313/n04524313_9050.JPEG","n02512053/n02512053_153.JPEG","n03636248/n03636248_2148.JPEG","n03001627/n03001627_1108.JPEG","n04524313/n04524313_8020.JPEG","n03201035/n03201035_5556.JPEG","n04524313/n04524313_4333.JPEG","n04524313/n04524313_8483.JPEG","n13134947/n13134947_2598.JPEG","n03620967/n03620967_1360.JPEG","n04524313/n04524313_2348.JPEG"],"trial_ID":6,"responses":["n03620967/n03620967_7066.JPEG","n03201035/n03201035_1999.JPEG","n03201035/n03201035_5556.JPEG","n03620967/n03620967_1360.JPEG"],"rt":26931},{"internal_node_id":"0.0-8.0","time_elapsed":245013,"trial_index":8,"trial_type":"generalization","sample_node":"n03467517","trial_type2":"10_ex","condition":"basic-level_condition","nonsense_word":"coloost","train_images":["n03467517/n03467517_17310.JPEG","n03467517/n03467517_9397.JPEG","n03467517/n03467517_5572.JPEG","n03467517/n03467517_10902.JPEG","n03467517/n03467517_16511.JPEG","n03272010/n03272010_1114.JPEG","n03467517/n03467517_18997.JPEG","n03467517/n03467517_3502.JPEG","n03467517/n03467517_4756.JPEG","n03467517/n03467517_22223.JPEG"],"test_images":["n03405725/n03405725_12903.JPEG","n04524313/n04524313_5934.JPEG","n03272010/n03272010_6264.JPEG","n03249569/n03249569_36234.JPEG","n03249569/n03249569_23220.JPEG","n04524313/n04524313_193.JPEG","n13104059/n13104059_8514.JPEG","n03405725/n03405725_13367.JPEG","n03249569/n03249569_36361.JPEG","n13104059/n13104059_11280.JPEG","n04451818/n04451818_11999.JPEG","n13104059/n13104059_7655.JPEG","n03405725/n03405725_2779.JPEG","n04524313/n04524313_1318.JPEG","n04451818/n04451818_7186.JPEG","n13104059/n13104059_2783.JPEG","n13134947/n13134947_5162.JPEG","n02676566/n02676566_7510.JPEG","n03405725/n03405725_29694.JPEG","n03405725/n03405725_29460.JPEG","n02676566/n02676566_3482.JPEG","n03051540/n03051540_39426.JPEG","n03272010/n03272010_4212.JPEG","n03928116/n03928116_38581.JPEG"],"trial_ID":6,"responses":["n03272010/n03272010_6264.JPEG","n02676566/n02676566_7510.JPEG","n02676566/n02676566_3482.JPEG","n03272010/n03272010_4212.JPEG"],"rt":40017},{"internal_node_id":"0.0-9.0","time_elapsed":271752,"trial_index":9,"trial_type":"generalization","sample_node":"n02691156","trial_type2":"3_ex","condition":"basic-level_condition","nonsense_word":"coloost","train_images":["n02690373/n02690373_6698.JPEG","n02691156/n02691156_8375.JPEG","n02691156/n02691156_11512.JPEG"],"test_images":["n03335030/n03335030_13194.JPEG","n03051540/n03051540_20380.JPEG","n13104059/n13104059_7702.JPEG","n13104059/n13104059_10152.JPEG","n03051540/n03051540_8755.JPEG","n04451818/n04451818_11999.JPEG","n13104059/n13104059_504.JPEG","n04490091/n04490091_16551.JPEG","n04451818/n04451818_14794.JPEG","n02690373/n02690373_4299.JPEG","n03335030/n03335030_17079.JPEG","n04451818/n04451818_12335.JPEG","n04451818/n04451818_27644.JPEG","n04490091/n04490091_16080.JPEG","n13104059/n13104059_9916.JPEG","n13104059/n13104059_9576.JPEG","n03405725/n03405725_25186.JPEG","n13104059/n13104059_8540.JPEG","n04451818/n04451818_1952.JPEG","n04490091/n04490091_22324.JPEG","n04490091/n04490091_30141.JPEG","n03405725/n03405725_13521.JPEG","n02690373/n02690373_4943.JPEG","n13104059/n13104059_1988.JPEG"],"trial_ID":6,"responses":["n03335030/n03335030_13194.JPEG","n02690373/n02690373_4299.JPEG","n03335030/n03335030_17079.JPEG","n02690373/n02690373_4943.JPEG"],"rt":25732}],"__v":0}
{"_id":{"$oid":"59122b7934dfb20004bad603"},"data":[{"internal_node_id":"0.0-2.0","time_elapsed":113130,"trial_index":2,"trial_type":"generalization","sample_node":"n02752496","trial_type2":"3_ex","condition":"subordinate_condition","nonsense_word":"aftion","train_images":["n02752496/n02752496_2844.JPEG","n02752496/n02752496_5090.JPEG","n02752496/n02752496_3380.JPEG"],"test_images":["n03622931/n03622931_219.JPEG","n01503061/n01503061_13700.JPEG","n01503061/n01503061_15191.JPEG","n02752496/n02752496_689.JPEG","n01503061/n01503061_10393.JPEG","n01503061/n01503061_14540.JPEG","n04451818/n04451818_21845.JPEG","n02752496/n02752496_1317.JPEG","n03405725/n03405725_28986.JPEG","n03405725/n03405725_31342.JPEG","n01503061/n01503061_3222.JPEG","n03800933/n03800933_2658.JPEG","n03405725/n03405725_1837.JPEG","n01503061/n01503061_21992.JPEG","n04489008/n04489008_14327.JPEG","n01503061/n01503061_350.JPEG","n04489008/n04489008_10714.JPEG","n03405725/n03405725_30668.JPEG","n04197391/n04197391_2438.JPEG","n03622931/n03622931_10316.JPEG","n04489008/n04489008_10396.JPEG","n03800933/n03800933_4042.JPEG","n01503061/n01503061_11162.JPEG","n13134947/n13134947_305.JPEG"],"trial_ID":1,"responses":["n03622931/n03622931_219.JPEG","n02752496/n02752496_689.JPEG","n02752496/n02752496_1317.JPEG","n03622931/n03622931_10316.JPEG"],"rt":94439},{"internal_node_id":"0.0-3.0","time_elapsed":144437,"trial_index":3,"trial_type":"generalization","sample_node":"n01503061","trial_type2":"10_ex","condition":"superordinate_condition","nonsense_word":"aftion","train_images":["n01503061/n01503061_4920.JPEG","n01503061/n01503061_14067.JPEG","n01503061/n01503061_8166.JPEG","n01503061/n01503061_8698.JPEG","n01503061/n01503061_11048.JPEG","n01503061/n01503061_501.JPEG","n01536186/n01536186_3180.JPEG","n01503061/n01503061_506.JPEG","n01503061/n01503061_14859.JPEG","n01503061/n01503061_18614.JPEG"],"test_images":["n13104059/n13104059_9867.JPEG","n01621127/n01621127_13317.JPEG","n04524313/n04524313_8416.JPEG","n13134947/n13134947_5103.JPEG","n01621127/n01621127_8966.JPEG","n03051540/n03051540_13525.JPEG","n02512053/n02512053_8380.JPEG","n13104059/n13104059_6291.JPEG","n02512053/n02512053_3204.JPEG","n02512053/n02512053_10013.JPEG","n01536186/n01536186_4362.JPEG","n03405725/n03405725_257.JPEG","n13104059/n13104059_3562.JPEG","n04451818/n04451818_5588.JPEG","n13104059/n13104059_14236.JPEG","n01613294/n01613294_3086.JPEG","n01536644/n01536644_8617.JPEG","n13134947/n13134947_454.JPEG","n02512053/n02512053_7664.JPEG","n04451818/n04451818_20006.JPEG","n01536644/n01536644_6571.JPEG","n01613294/n01613294_4638.JPEG","n01536186/n01536186_3437.JPEG","n03405725/n03405725_2367.JPEG"],"trial_ID":1,"responses":["n01621127/n01621127_13317.JPEG","n01621127/n01621127_8966.JPEG","n01536186/n01536186_4362.JPEG","n01536644/n01536644_8617.JPEG","n01536644/n01536644_6571.JPEG","n01613294/n01613294_4638.JPEG","n01536186/n01536186_3437.JPEG"],"rt":30279},{"internal_node_id":"0.0-4.0","time_elapsed":173374,"trial_index":4,"trial_type":"generalization","sample_node":"n02534734","trial_type2":"5_ex","condition":"basic-level_condition","nonsense_word":"aftion","train_images":["n02534734/n02534734_11982.JPEG","n02534734/n02534734_2845.JPEG","n02534734/n02534734_6428.JPEG","n02534734/n02534734_12103.JPEG","n02536456/n02536456_2820.JPEG"],"test_images":["n02586543/n02586543_1773.JPEG","n03405725/n03405725_4397.JPEG","n04451818/n04451818_15469.JPEG","n03051540/n03051540_11027.JPEG","n02535537/n02535537_3703.JPEG","n02535537/n02535537_15273.JPEG","n03405725/n03405725_31946.JPEG","n13104059/n13104059_1645.JPEG","n02536456/n02536456_4033.JPEG","n13104059/n13104059_371.JPEG","n13134947/n13134947_2021.JPEG","n04451818/n04451818_26704.JPEG","n04451818/n04451818_641.JPEG","n03800933/n03800933_22705.JPEG","n03405725/n03405725_1436.JPEG","n02537085/n02537085_11422.JPEG","n02537085/n02537085_8779.JPEG","n02537085/n02537085_280.JPEG","n01503061/n01503061_1306.JPEG","n04524313/n04524313_24647.JPEG","n03405725/n03405725_3301.JPEG","n02536456/n02536456_3431.JPEG","n04524313/n04524313_2424.JPEG","n01503061/n01503061_14451.JPEG"],"trial_ID":1,"responses":["n02586543/n02586543_1773.JPEG","n02535537/n02535537_3703.JPEG","n02535537/n02535537_15273.JPEG","n02536456/n02536456_4033.JPEG","n02537085/n02537085_11422.JPEG","n02537085/n02537085_8779.JPEG","n02537085/n02537085_280.JPEG","n02536456/n02536456_3431.JPEG"],"rt":27913},{"internal_node_id":"0.0-5.0","time_elapsed":231421,"trial_index":5,"trial_type":"generalization","sample_node":"n04140064","trial_type2":"3_ex","condition":"basic-level_condition","nonsense_word":"aftion","train_images":["n04140064/n04140064_18071.JPEG","n04140064/n04140064_17879.JPEG","n03474779/n03474779_19311.JPEG"],"test_images":["n03136504/n03136504_927.JPEG","n03405725/n03405725_14211.JPEG","n03405725/n03405725_2471.JPEG","n03405725/n03405725_14041.JPEG","n03405725/n03405725_2938.JPEG","n04154565/n04154565_13008.JPEG","n03405725/n03405725_7947.JPEG","n03051540/n03051540_23015.JPEG","n03405725/n03405725_33627.JPEG","n03474779/n03474779_13942.JPEG","n03481172/n03481172_2337.JPEG","n03405725/n03405725_8838.JPEG","n03474779/n03474779_4039.JPEG","n03800933/n03800933_15410.JPEG","n03405725/n03405725_18234.JPEG","n04154565/n04154565_6120.JPEG","n13104059/n13104059_9052.JPEG","n03136504/n03136504_3777.JPEG","n13104059/n13104059_13281.JPEG","n03481172/n03481172_9627.JPEG","n03405725/n03405725_5215.JPEG","n02512053/n02512053_13073.JPEG","n03405725/n03405725_16868.JPEG","n03800933/n03800933_24210.JPEG"],"trial_ID":1,"responses":["n03136504/n03136504_927.JPEG","n03474779/n03474779_4039.JPEG","n03136504/n03136504_3777.JPEG","n03481172/n03481172_9627.JPEG"],"rt":57026},{"internal_node_id":"0.0-6.0","time_elapsed":253150,"trial_index":6,"trial_type":"generalization","sample_node":"n07759194","trial_type2":"3_ex","condition":"subordinate_condition","nonsense_word":"aftion","train_images":["n07759194/n07759194_5627.JPEG","n07759194/n07759194_500.JPEG","n07759194/n07759194_2405.JPEG"],"test_images":["n07760755/n07760755_1187.JPEG","n07739125/n07739125_4801.JPEG","n04524313/n04524313_3921.JPEG","n04524313/n04524313_795.JPEG","n01503061/n01503061_4552.JPEG","n07739125/n07739125_1641.JPEG","n03051540/n03051540_28593.JPEG","n01503061/n01503061_3816.JPEG","n02512053/n02512053_7045.JPEG","n03405725/n03405725_11070.JPEG","n07760755/n07760755_2640.JPEG","n03405725/n03405725_3917.JPEG","n07759194/n07759194_5128.JPEG","n07739125/n07739125_6692.JPEG","n03405725/n03405725_33682.JPEG","n03405725/n03405725_6074.JPEG","n04524313/n04524313_9535.JPEG","n04524313/n04524313_8720.JPEG","n03405725/n03405725_34238.JPEG","n07739125/n07739125_758.JPEG","n02512053/n02512053_6964.JPEG","n01503061/n01503061_9347.JPEG","n04524313/n04524313_5650.JPEG","n07759194/n07759194_6700.JPEG"],"trial_ID":1,"responses":["n07759194/n07759194_5128.JPEG","n07759194/n07759194_6700.JPEG"],"rt":20707},{"internal_node_id":"0.0-7.0","time_elapsed":287883,"trial_index":7,"trial_type":"generalization","sample_node":"n04331277","trial_type2":"1_ex","condition":"subordinate_condition","nonsense_word":"aftion","train_images":["n04331277/n04331277_7094.JPEG"],"test_images":["n04524313/n04524313_4913.JPEG","n04524313/n04524313_8020.JPEG","n04524313/n04524313_4333.JPEG","n02738535/n02738535_16793.JPEG","n04331277/n04331277_7465.JPEG","n03636248/n03636248_22423.JPEG","n04379243/n04379243_13727.JPEG","n13104059/n13104059_7664.JPEG","n02512053/n02512053_153.JPEG","n04524313/n04524313_7625.JPEG","n02512053/n02512053_7690.JPEG","n03636248/n03636248_11461.JPEG","n13134947/n13134947_6868.JPEG","n02738535/n02738535_16470.JPEG","n04524313/n04524313_8483.JPEG","n04379243/n04379243_15436.JPEG","n04331277/n04331277_8259.JPEG","n13134947/n13134947_2598.JPEG","n04524313/n04524313_9050.JPEG","n04524313/n04524313_353.JPEG","n02512053/n02512053_8625.JPEG","n04524313/n04524313_319.JPEG","n04524313/n04524313_2348.JPEG","n04524313/n04524313_6208.JPEG"],"trial_ID":1,"responses":["n02738535/n02738535_16793.JPEG","n04331277/n04331277_7465.JPEG","n02738535/n02738535_16470.JPEG"],"rt":33711},{"internal_node_id":"0.0-8.0","time_elapsed":320906,"trial_index":8,"trial_type":"generalization","sample_node":"n04387400","trial_type2":"3_ex","condition":"subordinate_condition","nonsense_word":"aftion","train_images":["n04387400/n04387400_12887.JPEG","n04387400/n04387400_8041.JPEG","n04387400/n04387400_2711.JPEG"],"test_images":["n04451818/n04451818_7186.JPEG","n03928116/n03928116_35786.JPEG","n02803666/n02803666_1086.JPEG","n13104059/n13104059_7655.JPEG","n03405725/n03405725_29460.JPEG","n13104059/n13104059_11280.JPEG","n04524313/n04524313_5934.JPEG","n03405725/n03405725_29694.JPEG","n04387400/n04387400_15705.JPEG","n02803666/n02803666_8638.JPEG","n04524313/n04524313_193.JPEG","n03928116/n03928116_8266.JPEG","n03928116/n03928116_37995.JPEG","n13134947/n13134947_5162.JPEG","n03405725/n03405725_2779.JPEG","n13104059/n13104059_2783.JPEG","n04524313/n04524313_1318.JPEG","n03405725/n03405725_13367.JPEG","n03405725/n03405725_12903.JPEG","n03467517/n03467517_9788.JPEG","n13104059/n13104059_8514.JPEG","n04451818/n04451818_11999.JPEG","n03051540/n03051540_39426.JPEG","n04387400/n04387400_12663.JPEG"],"trial_ID":1,"responses":["n04387400/n04387400_15705.JPEG","n04387400/n04387400_12663.JPEG"],"rt":32001},{"internal_node_id":"0.0-9.0","time_elapsed":341333,"trial_index":9,"trial_type":"generalization","sample_node":"n03335030","trial_type2":"10_ex","condition":"subordinate_condition","nonsense_word":"aftion","train_images":["n03335030/n03335030_16522.JPEG","n03335030/n03335030_8993.JPEG","n03335030/n03335030_19188.JPEG","n03335030/n03335030_4037.JPEG","n03335030/n03335030_54395.JPEG","n03335030/n03335030_9483.JPEG","n03335030/n03335030_11991.JPEG","n03335030/n03335030_8809.JPEG","n03335030/n03335030_13412.JPEG","n03335030/n03335030_13801.JPEG"],"test_images":["n13104059/n13104059_8540.JPEG","n13104059/n13104059_504.JPEG","n04490091/n04490091_16551.JPEG","n04451818/n04451818_14794.JPEG","n02690373/n02690373_5693.JPEG","n13104059/n13104059_1988.JPEG","n03051540/n03051540_8755.JPEG","n04490091/n04490091_16080.JPEG","n03405725/n03405725_13521.JPEG","n13104059/n13104059_9916.JPEG","n04490091/n04490091_30141.JPEG","n04451818/n04451818_11999.JPEG","n13104059/n13104059_7702.JPEG","n04451818/n04451818_12335.JPEG","n03335030/n03335030_4421.JPEG","n04451818/n04451818_1952.JPEG","n04451818/n04451818_27644.JPEG","n04490091/n04490091_22324.JPEG","n03335030/n03335030_14986.JPEG","n03051540/n03051540_20380.JPEG","n13104059/n13104059_9576.JPEG","n02690373/n02690373_7200.JPEG","n03405725/n03405725_25186.JPEG","n13104059/n13104059_10152.JPEG"],"trial_ID":1,"responses":["n03335030/n03335030_4421.JPEG","n03335030/n03335030_14986.JPEG"],"rt":19405}],"__v":0}
{"_id":{"$oid":"59122bb234dfb20004bad604"},"data":[{"internal_node_id":"0.0-2.0","time_elapsed":269385,"trial_index":2,"trial_type":"generalization","sample_node":"n04197391","trial_type2":"10_ex","condition":"basic-level_condition","nonsense_word":"canney","train_images":["n04197391/n04197391_494.JPEG","n04197391/n04197391_11231.JPEG","n04197391/n04197391_18869.JPEG","n04197391/n04197391_1732.JPEG","n04197391/n04197391_7819.JPEG","n03978966/n03978966_14608.JPEG","n04197391/n04197391_786.JPEG","n04197391/n04197391_2084.JPEG","n04197391/n04197391_418.JPEG","n04197391/n04197391_262.JPEG"],"test_images":["n03405725/n03405725_31342.JPEG","n03405725/n03405725_28986.JPEG","n04254777/n04254777_14273.JPEG","n01503061/n01503061_11162.JPEG","n04254777/n04254777_16993.JPEG","n01503061/n01503061_15191.JPEG","n03978966/n03978966_5453.JPEG","n03238879/n03238879_23015.JPEG","n03800933/n03800933_4042.JPEG","n03978966/n03978966_2714.JPEG","n03238879/n03238879_13780.JPEG","n04254777/n04254777_17120.JPEG","n01503061/n01503061_10393.JPEG","n04451818/n04451818_21845.JPEG","n03405725/n03405725_30668.JPEG","n03800933/n03800933_2658.JPEG","n01503061/n01503061_350.JPEG","n01503061/n01503061_21992.JPEG","n04254777/n04254777_13374.JPEG","n03405725/n03405725_1837.JPEG","n01503061/n01503061_13700.JPEG","n01503061/n01503061_14540.JPEG","n01503061/n01503061_3222.JPEG","n13134947/n13134947_305.JPEG"],"trial_ID":5,"responses":["n03978966/n03978966_5453.JPEG","n03238879/n03238879_23015.JPEG","n03978966/n03978966_2714.JPEG","n03238879/n03238879_13780.JPEG"],"rt":238894},{"internal_node_id":"0.0-3.0","time_elapsed":291002,"trial_index":3,"trial_type":"generalization","sample_node":"n01613294","trial_type2":"3_ex","condition":"basic-level_condition","nonsense_word":"canney","train_images":["n01613294/n01613294_2608.JPEG","n01613294/n01613294_5464.JPEG","n01614343/n01614343_4069.JPEG"],"test_images":["n01621127/n01621127_1550.JPEG","n02512053/n02512053_3204.JPEG","n01539573/n01539573_1238.JPEG","n13134947/n13134947_5103.JPEG","n01614925/n01614925_4106.JPEG","n03051540/n03051540_13525.JPEG","n02512053/n02512053_8380.JPEG","n04451818/n04451818_20006.JPEG","n04451818/n04451818_5588.JPEG","n01614343/n01614343_7500.JPEG","n01614343/n01614343_4094.JPEG","n03405725/n03405725_2367.JPEG","n13104059/n13104059_9867.JPEG","n01614925/n01614925_3644.JPEG","n13104059/n13104059_6291.JPEG","n13134947/n13134947_454.JPEG","n02512053/n02512053_10013.JPEG","n13104059/n13104059_14236.JPEG","n01621127/n01621127_17865.JPEG","n02512053/n02512053_7664.JPEG","n01621127/n01621127_13059.JPEG","n03405725/n03405725_257.JPEG","n04524313/n04524313_8416.JPEG","n13104059/n13104059_3562.JPEG"],"trial_ID":5,"responses":["n01614925/n01614925_4106.JPEG","n01614343/n01614343_7500.JPEG","n01614343/n01614343_4094.JPEG"],"rt":20603},{"internal_node_id":"0.0-4.0","time_elapsed":316378,"trial_index":4,"trial_type":"generalization","sample_node":"n02538010","trial_type2":"10_ex","condition":"subordinate_condition","nonsense_word":"canney","train_images":["n02538010/n02538010_7557.JPEG","n02538010/n02538010_4442.JPEG","n02538010/n02538010_985.JPEG","n02538010/n02538010_7372.JPEG","n02538010/n02538010_10313.JPEG","n02538010/n02538010_11004.JPEG","n02538010/n02538010_6881.JPEG","n02538010/n02538010_491.JPEG","n02538010/n02538010_9255.JPEG","n02538010/n02538010_464.JPEG"],"test_images":["n03405725/n03405725_4397.JPEG","n01503061/n01503061_1306.JPEG","n03800933/n03800933_22705.JPEG","n02538010/n02538010_7028.JPEG","n13134947/n13134947_2021.JPEG","n02534734/n02534734_4653.JPEG","n13104059/n13104059_1645.JPEG","n04451818/n04451818_641.JPEG","n03051540/n03051540_11027.JPEG","n04524313/n04524313_24647.JPEG","n03405725/n03405725_1436.JPEG","n02586543/n02586543_12935.JPEG","n01503061/n01503061_14451.JPEG","n02537525/n02537525_9751.JPEG","n03405725/n03405725_3301.JPEG","n02537525/n02537525_2360.JPEG","n13104059/n13104059_371.JPEG","n03405725/n03405725_31946.JPEG","n02586543/n02586543_6858.JPEG","n02538010/n02538010_7221.JPEG","n04451818/n04451818_26704.JPEG","n04451818/n04451818_15469.JPEG","n04524313/n04524313_2424.JPEG","n02586543/n02586543_13444.JPEG"],"trial_ID":5,"responses":["n02538010/n02538010_7028.JPEG","n02534734/n02534734_4653.JPEG","n02586543/n02586543_12935.JPEG","n02537525/n02537525_9751.JPEG","n02586543/n02586543_6858.JPEG","n02538010/n02538010_7221.JPEG","n02586543/n02586543_13444.JPEG"],"rt":24363},{"internal_node_id":"0.0-5.0","time_elapsed":330446,"trial_index":5,"trial_type":"generalization","sample_node":"n03136504","trial_type2":"1_ex","condition":"subordinate_condition","nonsense_word":"canney","train_images":["n03136504/n03136504_8456.JPEG"],"test_images":["n13104059/n13104059_13281.JPEG","n03136504/n03136504_7312.JPEG","n03405725/n03405725_18234.JPEG","n03405725/n03405725_2938.JPEG","n03405725/n03405725_7947.JPEG","n03474779/n03474779_122.JPEG","n04154565/n04154565_6120.JPEG","n03800933/n03800933_24210.JPEG","n03481172/n03481172_2337.JPEG","n03481172/n03481172_9627.JPEG","n03405725/n03405725_33627.JPEG","n03405725/n03405725_14041.JPEG","n03474779/n03474779_18010.JPEG","n03051540/n03051540_23015.JPEG","n13104059/n13104059_9052.JPEG","n03136504/n03136504_2618.JPEG","n03405725/n03405725_14211.JPEG","n03405725/n03405725_16868.JPEG","n03405725/n03405725_5215.JPEG","n02512053/n02512053_13073.JPEG","n03405725/n03405725_2471.JPEG","n04154565/n04154565_13008.JPEG","n03405725/n03405725_8838.JPEG","n03800933/n03800933_15410.JPEG"],"trial_ID":5,"responses":["n03136504/n03136504_7312.JPEG","n03474779/n03474779_122.JPEG","n03474779/n03474779_18010.JPEG","n03136504/n03136504_2618.JPEG"],"rt":13054},{"internal_node_id":"0.0-6.0","time_elapsed":342624,"trial_index":6,"trial_type":"generalization","sample_node":"n07740954","trial_type2":"3_ex","condition":"subordinate_condition","nonsense_word":"canney","train_images":["n07740954/n07740954_186.JPEG","n07740954/n07740954_12746.JPEG","n07740954/n07740954_3902.JPEG"],"test_images":["n01503061/n01503061_3816.JPEG","n03405725/n03405725_11070.JPEG","n01503061/n01503061_9347.JPEG","n02512053/n02512053_6964.JPEG","n03405725/n03405725_33682.JPEG","n04524313/n04524313_3921.JPEG","n04524313/n04524313_9535.JPEG","n07758680/n07758680_13731.JPEG","n07744246/n07744246_12334.JPEG","n07744246/n07744246_3525.JPEG","n07740954/n07740954_3783.JPEG","n07740954/n07740954_17105.JPEG","n07740220/n07740220_9012.JPEG","n04524313/n04524313_5650.JPEG","n02512053/n02512053_7045.JPEG","n04524313/n04524313_795.JPEG","n01503061/n01503061_4552.JPEG","n03405725/n03405725_6074.JPEG","n03405725/n03405725_34238.JPEG","n03051540/n03051540_28593.JPEG","n07740220/n07740220_2232.JPEG","n04524313/n04524313_8720.JPEG","n03405725/n03405725_3917.JPEG","n07744246/n07744246_17216.JPEG"],"trial_ID":5,"responses":["n07740954/n07740954_3783.JPEG","n07740220/n07740220_9012.JPEG","n07740220/n07740220_2232.JPEG"],"rt":11156},{"internal_node_id":"0.0-7.0","time_elapsed":361014,"trial_index":7,"trial_type":"generalization","sample_node":"n03367059","trial_type2":"1_ex","condition":"subordinate_condition","nonsense_word":"canney","train_images":["n03367059/n03367059_5091.JPEG"],"test_images":["n04379243/n04379243_21929.JPEG","n04524313/n04524313_4333.JPEG","n02512053/n02512053_7690.JPEG","n04524313/n04524313_7625.JPEG","n04380533/n04380533_5787.JPEG","n04524313/n04524313_8020.JPEG","n04379243/n04379243_19723.JPEG","n02512053/n02512053_8625.JPEG","n04524313/n04524313_353.JPEG","n04524313/n04524313_319.JPEG","n13134947/n13134947_2598.JPEG","n04524313/n04524313_2348.JPEG","n03367059/n03367059_9140.JPEG","n13134947/n13134947_6868.JPEG","n04524313/n04524313_8483.JPEG","n04379243/n04379243_28629.JPEG","n03367059/n03367059_161.JPEG","n04380533/n04380533_4733.JPEG","n04524313/n04524313_4913.JPEG","n13104059/n13104059_7664.JPEG","n02512053/n02512053_153.JPEG","n04524313/n04524313_6208.JPEG","n04524313/n04524313_9050.JPEG","n04379243/n04379243_15121.JPEG"],"trial_ID":5,"responses":["n04380533/n04380533_5787.JPEG","n03367059/n03367059_9140.JPEG","n03367059/n03367059_161.JPEG","n04380533/n04380533_4733.JPEG"],"rt":17373},{"internal_node_id":"0.0-8.0","time_elapsed":373514,"trial_index":8,"trial_type":"generalization","sample_node":"n02676566","trial_type2":"1_ex","condition":"subordinate_condition","nonsense_word":"canney","train_images":["n02676566/n02676566_4573.JPEG"],"test_images":["n04451818/n04451818_7186.JPEG","n03272010/n03272010_3500.JPEG","n03272010/n03272010_3269.JPEG","n03051540/n03051540_39426.JPEG","n03249569/n03249569_23220.JPEG","n03249569/n03249569_36234.JPEG","n13104059/n13104059_8514.JPEG","n03249569/n03249569_36361.JPEG","n04524313/n04524313_1318.JPEG","n03928116/n03928116_38581.JPEG","n03405725/n03405725_12903.JPEG","n04524313/n04524313_193.JPEG","n13134947/n13134947_5162.JPEG","n13104059/n13104059_7655.JPEG","n02676566/n02676566_9462.JPEG","n03405725/n03405725_13367.JPEG","n02676566/n02676566_4943.JPEG","n03405725/n03405725_2779.JPEG","n04524313/n04524313_5934.JPEG","n13104059/n13104059_2783.JPEG","n13104059/n13104059_11280.JPEG","n04451818/n04451818_11999.JPEG","n03405725/n03405725_29460.JPEG","n03405725/n03405725_29694.JPEG"],"trial_ID":5,"responses":["n03272010/n03272010_3500.JPEG","n03272010/n03272010_3269.JPEG","n02676566/n02676566_9462.JPEG"],"rt":11486},{"internal_node_id":"0.0-9.0","time_elapsed":387718,"trial_index":9,"trial_type":"generalization","sample_node":"n04285008","trial_type2":"5_ex","condition":"subordinate_condition","nonsense_word":"canney","train_images":["n04285008/n04285008_7371.JPEG","n04285008/n04285008_6360.JPEG","n04285008/n04285008_88.JPEG","n04285008/n04285008_2650.JPEG","n04285008/n04285008_15065.JPEG"],"test_images":["n04451818/n04451818_11999.JPEG","n03405725/n03405725_25186.JPEG","n13104059/n13104059_1988.JPEG","n03051540/n03051540_20380.JPEG","n04451818/n04451818_12335.JPEG","n13104059/n13104059_9576.JPEG","n13104059/n13104059_8540.JPEG","n02691156/n02691156_49936.JPEG","n04490091/n04490091_5639.JPEG","n03051540/n03051540_8755.JPEG","n04285008/n04285008_13470.JPEG","n02691156/n02691156_2701.JPEG","n13104059/n13104059_9916.JPEG","n04451818/n04451818_1952.JPEG","n04166281/n04166281_21916.JPEG","n13104059/n13104059_504.JPEG","n13104059/n13104059_7702.JPEG","n04451818/n04451818_14794.JPEG","n04451818/n04451818_27644.JPEG","n04490091/n04490091_26530.JPEG","n03405725/n03405725_13521.JPEG","n04285008/n04285008_11756.JPEG","n13104059/n13104059_10152.JPEG","n04166281/n04166281_11527.JPEG"],"trial_ID":5,"responses":["n04285008/n04285008_13470.JPEG","n04166281/n04166281_21916.JPEG","n04166281/n04166281_11527.JPEG"],"rt":13193}],"__v":0}
{"_id":{"$oid":"59122bb434dfb20004bad605"},"data":[{"internal_node_id":"0.0-2.0","time_elapsed":61190,"trial_index":2,"trial_type":"generalization","sample_node":"n03622931","trial_type2":"10_ex","condition":"subordinate_condition","nonsense_word":"coloost","train_images":["n03622931/n03622931_1350.JPEG","n03622931/n03622931_9754.JPEG","n03622931/n03622931_10967.JPEG","n03622931/n03622931_9571.JPEG","n03622931/n03622931_1149.JPEG","n03622931/n03622931_9032.JPEG","n03622931/n03622931_7414.JPEG","n03622931/n03622931_10258.JPEG","n03622931/n03622931_1122.JPEG","n03622931/n03622931_1085.JPEG"],"test_images":["n02752496/n02752496_1963.JPEG","n01503061/n01503061_15191.JPEG","n01503061/n01503061_10393.JPEG","n03405725/n03405725_1837.JPEG","n01503061/n01503061_3222.JPEG","n13134947/n13134947_305.JPEG","n03405725/n03405725_31342.JPEG","n01503061/n01503061_21992.JPEG","n03622931/n03622931_987.JPEG","n04489008/n04489008_10714.JPEG","n04197391/n04197391_2438.JPEG","n04451818/n04451818_21845.JPEG","n03405725/n03405725_30668.JPEG","n04489008/n04489008_14327.JPEG","n03405725/n03405725_28986.JPEG","n01503061/n01503061_14540.JPEG","n01503061/n01503061_350.JPEG","n04489008/n04489008_10396.JPEG","n03800933/n03800933_4042.JPEG","n03622931/n03622931_9710.JPEG","n03800933/n03800933_2658.JPEG","n02752496/n02752496_3380.JPEG","n01503061/n01503061_11162.JPEG","n01503061/n01503061_13700.JPEG"],"trial_ID":4,"responses":["n02752496/n02752496_1963.JPEG","n03622931/n03622931_987.JPEG","n03622931/n03622931_9710.JPEG","n02752496/n02752496_3380.JPEG"],"rt":45964},{"internal_node_id":"0.0-3.0","time_elapsed":85799,"trial_index":3,"trial_type":"generalization","sample_node":"n01625562","trial_type2":"5_ex","condition":"subordinate_condition","nonsense_word":"coloost","train_images":["n01625562/n01625562_1579.JPEG","n01625562/n01625562_983.JPEG","n01625562/n01625562_4353.JPEG","n01625562/n01625562_673.JPEG","n01625562/n01625562_5723.JPEG"],"test_images":["n01625562/n01625562_9985.JPEG","n03051540/n03051540_13525.JPEG","n01539573/n01539573_9915.JPEG","n01539573/n01539573_3933.JPEG","n01622779/n01622779_5337.JPEG","n13104059/n13104059_6291.JPEG","n04524313/n04524313_8416.JPEG","n13134947/n13134947_5103.JPEG","n02512053/n02512053_10013.JPEG","n04451818/n04451818_20006.JPEG","n03405725/n03405725_2367.JPEG","n01625562/n01625562_8772.JPEG","n13104059/n13104059_3562.JPEG","n01622779/n01622779_6730.JPEG","n01539573/n01539573_7070.JPEG","n03405725/n03405725_257.JPEG","n02512053/n02512053_8380.JPEG","n02512053/n02512053_3204.JPEG","n02512053/n02512053_7664.JPEG","n01539573/n01539573_12854.JPEG","n13104059/n13104059_14236.JPEG","n04451818/n04451818_5588.JPEG","n13104059/n13104059_9867.JPEG","n13134947/n13134947_454.JPEG"],"trial_ID":4,"responses":["n01625562/n01625562_9985.JPEG","n01622779/n01622779_5337.JPEG","n01622779/n01622779_6730.JPEG"],"rt":23594},{"internal_node_id":"0.0-4.0","time_elapsed":103593,"trial_index":4,"trial_type":"generalization","sample_node":"n02535537","trial_type2":"5_ex","condition":"subordinate_condition","nonsense_word":"coloost","train_images":["n02535537/n02535537_16549.JPEG","n02535537/n02535537_17651.JPEG","n02535537/n02535537_3194.JPEG","n02535537/n02535537_10266.JPEG","n02535537/n02535537_10207.JPEG"],"test_images":["n13134947/n13134947_2021.JPEG","n02537085/n02537085_8779.JPEG","n04524313/n04524313_24647.JPEG","n02536456/n02536456_5209.JPEG","n04451818/n04451818_641.JPEG","n03051540/n03051540_11027.JPEG","n13104059/n13104059_1645.JPEG","n02535537/n02535537_11679.JPEG","n13104059/n13104059_371.JPEG","n04451818/n04451818_26704.JPEG","n04524313/n04524313_2424.JPEG","n03800933/n03800933_22705.JPEG","n04451818/n04451818_15469.JPEG","n03405725/n03405725_1436.JPEG","n02535537/n02535537_17196.JPEG","n02586543/n02586543_1773.JPEG","n03405725/n03405725_4397.JPEG","n02537085/n02537085_280.JPEG","n03405725/n03405725_3301.JPEG","n02536456/n02536456_2660.JPEG","n03405725/n03405725_31946.JPEG","n01503061/n01503061_1306.JPEG","n01503061/n01503061_14451.JPEG","n02537085/n02537085_11422.JPEG"],"trial_ID":4,"responses":["n02537085/n02537085_8779.JPEG","n02536456/n02536456_5209.JPEG","n02535537/n02535537_11679.JPEG","n02535537/n02535537_17196.JPEG","n02586543/n02586543_1773.JPEG","n02537085/n02537085_280.JPEG","n02536456/n02536456_2660.JPEG","n02537085/n02537085_11422.JPEG"],"rt":16779},{"internal_node_id":"0.0-5.0","time_elapsed":124992,"trial_index":5,"trial_type":"generalization","sample_node":"n03474779","trial_type2":"1_ex","condition":"subordinate_condition","nonsense_word":"coloost","train_images":["n03474779/n03474779_19311.JPEG"],"test_images":["n13104059/n13104059_9052.JPEG","n03405725/n03405725_5215.JPEG","n03051540/n03051540_23015.JPEG","n03800933/n03800933_24210.JPEG","n03481172/n03481172_9627.JPEG","n03405725/n03405725_18234.JPEG","n03405725/n03405725_2938.JPEG","n03474779/n03474779_4039.JPEG","n04154565/n04154565_6120.JPEG","n03405725/n03405725_33627.JPEG","n03405725/n03405725_14041.JPEG","n03136504/n03136504_927.JPEG","n02512053/n02512053_13073.JPEG","n03405725/n03405725_16868.JPEG","n13104059/n13104059_13281.JPEG","n03136504/n03136504_3777.JPEG","n03800933/n03800933_15410.JPEG","n03481172/n03481172_2337.JPEG","n03405725/n03405725_2471.JPEG","n03405725/n03405725_14211.JPEG","n03405725/n03405725_8838.JPEG","n03474779/n03474779_13942.JPEG","n04154565/n04154565_13008.JPEG","n03405725/n03405725_7947.JPEG"],"trial_ID":4,"responses":["n03474779/n03474779_4039.JPEG","n03136504/n03136504_927.JPEG","n03136504/n03136504_3777.JPEG","n03474779/n03474779_13942.JPEG"],"rt":20384},{"internal_node_id":"0.0-6.0","time_elapsed":145952,"trial_index":6,"trial_type":"generalization","sample_node":"n13134947","trial_type2":"5_ex","condition":"superordinate_condition","nonsense_word":"coloost","train_images":["n13134947/n13134947_2310.JPEG","n13134947/n13134947_5342.JPEG","n13134947/n13134947_7936.JPEG","n07740954/n07740954_12746.JPEG","n13134947/n13134947_1726.JPEG"],"test_images":["n03405725/n03405725_34238.JPEG","n04524313/n04524313_3921.JPEG","n07740220/n07740220_9012.JPEG","n01503061/n01503061_3816.JPEG","n02512053/n02512053_6964.JPEG","n03405725/n03405725_11070.JPEG","n07740220/n07740220_2232.JPEG","n03405725/n03405725_3917.JPEG","n03051540/n03051540_28593.JPEG","n07740954/n07740954_17105.JPEG","n03405725/n03405725_6074.JPEG","n07744246/n07744246_17216.JPEG","n01503061/n01503061_9347.JPEG","n07740954/n07740954_3783.JPEG","n02512053/n02512053_7045.JPEG","n04524313/n04524313_8720.JPEG","n03405725/n03405725_33682.JPEG","n07744246/n07744246_3525.JPEG","n07758680/n07758680_13731.JPEG","n04524313/n04524313_9535.JPEG","n04524313/n04524313_5650.JPEG","n01503061/n01503061_4552.JPEG","n07744246/n07744246_12334.JPEG","n04524313/n04524313_795.JPEG"],"trial_ID":4,"responses":["n07740220/n07740220_9012.JPEG","n07740220/n07740220_2232.JPEG","n07740954/n07740954_17105.JPEG","n07744246/n07744246_17216.JPEG","n07740954/n07740954_3783.JPEG","n07744246/n07744246_3525.JPEG","n07758680/n07758680_13731.JPEG","n07744246/n07744246_12334.JPEG"],"rt":19948},{"internal_node_id":"0.0-7.0","time_elapsed":168881,"trial_index":7,"trial_type":"generalization","sample_node":"n03405725","trial_type2":"3_ex","condition":"superordinate_condition","nonsense_word":"coloost","train_images":["n03405725/n03405725_28068.JPEG","n02738535/n02738535_28181.JPEG","n03405725/n03405725_23875.JPEG"],"test_images":["n04524313/n04524313_2348.JPEG","n02738535/n02738535_3220.JPEG","n02512053/n02512053_8625.JPEG","n02738535/n02738535_8772.JPEG","n04524313/n04524313_8020.JPEG","n04524313/n04524313_8483.JPEG","n04524313/n04524313_319.JPEG","n13104059/n13104059_7664.JPEG","n04379243/n04379243_13727.JPEG","n04524313/n04524313_7625.JPEG","n04524313/n04524313_4913.JPEG","n04524313/n04524313_6208.JPEG","n02512053/n02512053_7690.JPEG","n13134947/n13134947_6868.JPEG","n03636248/n03636248_22423.JPEG","n04379243/n04379243_15436.JPEG","n04524313/n04524313_9050.JPEG","n04331277/n04331277_9171.JPEG","n13134947/n13134947_2598.JPEG","n04524313/n04524313_4333.JPEG","n04524313/n04524313_353.JPEG","n04331277/n04331277_7958.JPEG","n03636248/n03636248_11461.JPEG","n02512053/n02512053_153.JPEG"],"trial_ID":4,"responses":["n02738535/n02738535_3220.JPEG","n02738535/n02738535_8772.JPEG","n04379243/n04379243_13727.JPEG","n03636248/n03636248_22423.JPEG","n04379243/n04379243_15436.JPEG","n04331277/n04331277_9171.JPEG","n04331277/n04331277_7958.JPEG"],"rt":21914},{"internal_node_id":"0.0-8.0","time_elapsed":384607,"trial_index":8,"trial_type":"generalization","sample_node":"n03928116","trial_type2":"10_ex","condition":"basic-level_condition","nonsense_word":"coloost","train_images":["n03928116/n03928116_7151.JPEG","n04515003/n04515003_7318.JPEG","n03928116/n03928116_2927.JPEG","n03928116/n03928116_26651.JPEG","n03928116/n03928116_15247.JPEG","n03928116/n03928116_15741.JPEG","n03928116/n03928116_5324.JPEG","n03928116/n03928116_4476.JPEG","n03928116/n03928116_6808.JPEG","n03928116/n03928116_789.JPEG"],"test_images":["n04515003/n04515003_5396.JPEG","n04451818/n04451818_11999.JPEG","n13104059/n13104059_11280.JPEG","n13104059/n13104059_2783.JPEG","n03452741/n03452741_12974.JPEG","n03405725/n03405725_2779.JPEG","n04524313/n04524313_193.JPEG","n04524313/n04524313_1318.JPEG","n03405725/n03405725_29460.JPEG","n03405725/n03405725_12903.JPEG","n04451818/n04451818_7186.JPEG","n04524313/n04524313_5934.JPEG","n03467517/n03467517_8824.JPEG","n03249569/n03249569_15048.JPEG","n03051540/n03051540_39426.JPEG","n04515003/n04515003_5087.JPEG","n13104059/n13104059_8514.JPEG","n03467517/n03467517_17439.JPEG","n03405725/n03405725_13367.JPEG","n13104059/n13104059_7655.JPEG","n03467517/n03467517_8085.JPEG","n03405725/n03405725_29694.JPEG","n03452741/n03452741_5313.JPEG","n13134947/n13134947_5162.JPEG"],"trial_ID":4,"responses":["n04515003/n04515003_5396.JPEG","n04515003/n04515003_5087.JPEG"],"rt":214712},{"internal_node_id":"0.0-9.0","time_elapsed":395102,"trial_index":9,"trial_type":"generalization","sample_node":"n03930630","trial_type2":"3_ex","condition":"subordinate_condition","nonsense_word":"coloost","train_images":["n03930630/n03930630_1112.JPEG","n03930630/n03930630_13087.JPEG","n03930630/n03930630_3001.JPEG"],"test_images":["n13104059/n13104059_7702.JPEG","n04451818/n04451818_1952.JPEG","n04467665/n04467665_33716.JPEG","n04451818/n04451818_27644.JPEG","n02958343/n02958343_5257.JPEG","n03405725/n03405725_25186.JPEG","n03051540/n03051540_20380.JPEG","n03405725/n03405725_13521.JPEG","n03930630/n03930630_18748.JPEG","n02691156/n02691156_1085.JPEG","n13104059/n13104059_9916.JPEG","n02958343/n02958343_13733.JPEG","n13104059/n13104059_9576.JPEG","n02691156/n02691156_10932.JPEG","n13104059/n13104059_1988.JPEG","n03051540/n03051540_8755.JPEG","n13104059/n13104059_504.JPEG","n04451818/n04451818_12335.JPEG","n04451818/n04451818_14794.JPEG","n13104059/n13104059_8540.JPEG","n03930630/n03930630_884.JPEG","n13104059/n13104059_10152.JPEG","n04467665/n04467665_4401.JPEG","n04451818/n04451818_11999.JPEG"],"trial_ID":4,"responses":["n02958343/n02958343_5257.JPEG","n03930630/n03930630_18748.JPEG","n03930630/n03930630_884.JPEG"],"rt":9483}],"__v":0}
{"_id":{"$oid":"59122bc234dfb20004bad606"},"data":[{"internal_node_id":"0.0-2.0","time_elapsed":138779,"trial_index":2,"trial_type":"generalization","sample_node":"n03622931","trial_type2":"3_ex","condition":"subordinate_condition","nonsense_word":"pomple","train_images":["n03622931/n03622931_1085.JPEG","n03622931/n03622931_10258.JPEG","n03622931/n03622931_10967.JPEG"],"test_images":["n02752496/n02752496_3380.JPEG","n01503061/n01503061_15191.JPEG","n03405725/n03405725_1837.JPEG","n04489008/n04489008_10714.JPEG","n01503061/n01503061_11162.JPEG","n03405725/n03405725_30668.JPEG","n01503061/n01503061_3222.JPEG","n03405725/n03405725_28986.JPEG","n03405725/n03405725_31342.JPEG","n03622931/n03622931_987.JPEG","n02752496/n02752496_1963.JPEG","n01503061/n01503061_13700.JPEG","n04451818/n04451818_21845.JPEG","n03800933/n03800933_4042.JPEG","n03622931/n03622931_9710.JPEG","n03800933/n03800933_2658.JPEG","n04489008/n04489008_10396.JPEG","n01503061/n01503061_10393.JPEG","n04197391/n04197391_2438.JPEG","n13134947/n13134947_305.JPEG","n04489008/n04489008_14327.JPEG","n01503061/n01503061_14540.JPEG","n01503061/n01503061_350.JPEG","n01503061/n01503061_21992.JPEG"],"trial_ID":2,"responses":["n03622931/n03622931_987.JPEG","n03622931/n03622931_9710.JPEG"],"rt":83485},{"internal_node_id":"0.0-3.0","time_elapsed":203546,"trial_index":3,"trial_type":"generalization","sample_node":"n01622779","trial_type2":"3_ex","condition":"subordinate_condition","nonsense_word":"pomple","train_images":["n01622779/n01622779_3765.JPEG","n01622779/n01622779_3855.JPEG","n01622779/n01622779_1078.JPEG"],"test_images":["n01622779/n01622779_3647.JPEG","n13134947/n13134947_5103.JPEG","n02512053/n02512053_8380.JPEG","n04451818/n04451818_5588.JPEG","n13134947/n13134947_454.JPEG","n03405725/n03405725_257.JPEG","n01625562/n01625562_1446.JPEG","n13104059/n13104059_14236.JPEG","n01539573/n01539573_7070.JPEG","n01622779/n01622779_6923.JPEG","n13104059/n13104059_9867.JPEG","n02512053/n02512053_3204.JPEG","n03051540/n03051540_13525.JPEG","n02512053/n02512053_10013.JPEG","n01625562/n01625562_8301.JPEG","n01539573/n01539573_9915.JPEG","n01539573/n01539573_12854.JPEG","n02512053/n02512053_7664.JPEG","n03405725/n03405725_2367.JPEG","n01539573/n01539573_3933.JPEG","n13104059/n13104059_6291.JPEG","n13104059/n13104059_3562.JPEG","n04524313/n04524313_8416.JPEG","n04451818/n04451818_20006.JPEG"],"trial_ID":2,"responses":["n01622779/n01622779_3647.JPEG","n01622779/n01622779_6923.JPEG"],"rt":63706},{"internal_node_id":"0.0-4.0","time_elapsed":252314,"trial_index":4,"trial_type":"generalization","sample_node":"n02512053","trial_type2":"5_ex","condition":"superordinate_condition","nonsense_word":"pomple","train_images":["n02512053/n02512053_8878.JPEG","n02538010/n02538010_491.JPEG","n02512053/n02512053_4711.JPEG","n02512053/n02512053_2552.JPEG","n02512053/n02512053_33.JPEG"],"test_images":["n03405725/n03405725_4397.JPEG","n02537525/n02537525_2360.JPEG","n04451818/n04451818_26704.JPEG","n03051540/n03051540_11027.JPEG","n04451818/n04451818_15469.JPEG","n13104059/n13104059_371.JPEG","n04524313/n04524313_24647.JPEG","n13134947/n13134947_2021.JPEG","n02537525/n02537525_9751.JPEG","n04524313/n04524313_2424.JPEG","n03800933/n03800933_22705.JPEG","n03405725/n03405725_31946.JPEG","n13104059/n13104059_1645.JPEG","n03405725/n03405725_1436.JPEG","n01503061/n01503061_1306.JPEG","n02586543/n02586543_12935.JPEG","n01503061/n01503061_14451.JPEG","n04451818/n04451818_641.JPEG","n02586543/n02586543_6858.JPEG","n03405725/n03405725_3301.JPEG","n02534734/n02534734_4653.JPEG","n02538010/n02538010_7028.JPEG","n02586543/n02586543_13444.JPEG","n02538010/n02538010_7221.JPEG"],"trial_ID":2,"responses":["n02537525/n02537525_2360.JPEG","n02537525/n02537525_9751.JPEG","n02586543/n02586543_12935.JPEG","n02586543/n02586543_6858.JPEG","n02534734/n02534734_4653.JPEG","n02586543/n02586543_13444.JPEG","n02538010/n02538010_7221.JPEG"],"rt":47707},{"internal_node_id":"0.0-5.0","time_elapsed":290336,"trial_index":5,"trial_type":"generalization","sample_node":"n02783035","trial_type2":"10_ex","condition":"subordinate_condition","nonsense_word":"pomple","train_images":["n02783035/n02783035_1239.JPEG","n02783035/n02783035_1579.JPEG","n02783035/n02783035_1296.JPEG","n02783035/n02783035_1052.JPEG","n02783035/n02783035_1055.JPEG","n02783035/n02783035_372.JPEG","n02783035/n02783035_22.JPEG","n02783035/n02783035_758.JPEG","n02783035/n02783035_773.JPEG","n02783035/n02783035_1387.JPEG"],"test_images":["n03405725/n03405725_5215.JPEG","n04140064/n04140064_4532.JPEG","n03800933/n03800933_24210.JPEG","n03405725/n03405725_14211.JPEG","n03405725/n03405725_7947.JPEG","n13104059/n13104059_13281.JPEG","n02966545/n02966545_448.JPEG","n02512053/n02512053_13073.JPEG","n02966545/n02966545_3080.JPEG","n03405725/n03405725_2938.JPEG","n03405725/n03405725_16868.JPEG","n03800933/n03800933_15410.JPEG","n03405725/n03405725_14041.JPEG","n03405725/n03405725_2471.JPEG","n04140064/n04140064_17371.JPEG","n03051540/n03051540_23015.JPEG","n04154565/n04154565_384.JPEG","n02783035/n02783035_1231.JPEG","n03405725/n03405725_33627.JPEG","n13104059/n13104059_9052.JPEG","n03405725/n03405725_8838.JPEG","n03405725/n03405725_18234.JPEG","n04140064/n04140064_12452.JPEG","n02783035/n02783035_1575.JPEG"],"trial_ID":2,"responses":["n02966545/n02966545_448.JPEG","n02966545/n02966545_3080.JPEG","n02783035/n02783035_1231.JPEG","n02783035/n02783035_1575.JPEG"],"rt":36971},{"internal_node_id":"0.0-6.0","time_elapsed":323807,"trial_index":6,"trial_type":"generalization","sample_node":"n07740220","trial_type2":"5_ex","condition":"subordinate_condition","nonsense_word":"pomple","train_images":["n07740220/n07740220_4953.JPEG","n07740220/n07740220_16938.JPEG","n07740220/n07740220_11442.JPEG","n07740220/n07740220_13112.JPEG","n07740220/n07740220_15143.JPEG"],"test_images":["n07744246/n07744246_3525.JPEG","n07744246/n07744246_12334.JPEG","n04524313/n04524313_5650.JPEG","n01503061/n01503061_3816.JPEG","n07740220/n07740220_1775.JPEG","n04524313/n04524313_8720.JPEG","n01503061/n01503061_9347.JPEG","n03051540/n03051540_28593.JPEG","n03405725/n03405725_33682.JPEG","n03405725/n03405725_11070.JPEG","n03405725/n03405725_3917.JPEG","n04524313/n04524313_3921.JPEG","n04524313/n04524313_795.JPEG","n02512053/n02512053_6964.JPEG","n07744246/n07744246_17216.JPEG","n07740220/n07740220_12826.JPEG","n04524313/n04524313_9535.JPEG","n03405725/n03405725_6074.JPEG","n01503061/n01503061_4552.JPEG","n03405725/n03405725_34238.JPEG","n07758680/n07758680_13731.JPEG","n07740954/n07740954_15172.JPEG","n07740954/n07740954_4357.JPEG","n02512053/n02512053_7045.JPEG"],"trial_ID":2,"responses":["n07740220/n07740220_1775.JPEG","n07740220/n07740220_12826.JPEG","n07740954/n07740954_15172.JPEG","n07740954/n07740954_4357.JPEG"],"rt":32416},{"internal_node_id":"0.0-7.0","time_elapsed":357903,"trial_index":7,"trial_type":"generalization","sample_node":"n02738535","trial_type2":"1_ex","condition":"subordinate_condition","nonsense_word":"pomple","train_images":["n02738535/n02738535_28181.JPEG"],"test_images":["n04524313/n04524313_8020.JPEG","n04524313/n04524313_4913.JPEG","n04379243/n04379243_13727.JPEG","n03636248/n03636248_11461.JPEG","n02738535/n02738535_8772.JPEG","n04524313/n04524313_8483.JPEG","n03636248/n03636248_22423.JPEG","n13104059/n13104059_7664.JPEG","n02512053/n02512053_153.JPEG","n02738535/n02738535_3220.JPEG","n13134947/n13134947_6868.JPEG","n04524313/n04524313_4333.JPEG","n04524313/n04524313_2348.JPEG","n04524313/n04524313_7625.JPEG","n04331277/n04331277_7958.JPEG","n02512053/n02512053_7690.JPEG","n04524313/n04524313_6208.JPEG","n04524313/n04524313_9050.JPEG","n04331277/n04331277_9171.JPEG","n04524313/n04524313_319.JPEG","n04524313/n04524313_353.JPEG","n13134947/n13134947_2598.JPEG","n04379243/n04379243_15436.JPEG","n02512053/n02512053_8625.JPEG"],"trial_ID":2,"responses":["n02738535/n02738535_8772.JPEG","n02738535/n02738535_3220.JPEG","n04331277/n04331277_7958.JPEG","n04331277/n04331277_9171.JPEG"],"rt":33050},{"internal_node_id":"0.0-8.0","time_elapsed":385678,"trial_index":8,"trial_type":"generalization","sample_node":"n03452741","trial_type2":"5_ex","condition":"subordinate_condition","nonsense_word":"pomple","train_images":["n03452741/n03452741_2718.JPEG","n03452741/n03452741_8975.JPEG","n03452741/n03452741_14352.JPEG","n03452741/n03452741_6126.JPEG","n03452741/n03452741_9668.JPEG"],"test_images":["n04451818/n04451818_11999.JPEG","n03051540/n03051540_39426.JPEG","n03467517/n03467517_8824.JPEG","n13104059/n13104059_2783.JPEG","n13104059/n13104059_7655.JPEG","n03405725/n03405725_29694.JPEG","n13134947/n13134947_5162.JPEG","n04515003/n04515003_3484.JPEG","n03405725/n03405725_29460.JPEG","n03452741/n03452741_8062.JPEG","n04451818/n04451818_7186.JPEG","n03405725/n03405725_12903.JPEG","n13104059/n13104059_8514.JPEG","n04515003/n04515003_6297.JPEG","n03467517/n03467517_8085.JPEG","n03249569/n03249569_15048.JPEG","n04524313/n04524313_5934.JPEG","n04524313/n04524313_193.JPEG","n04524313/n04524313_1318.JPEG","n03405725/n03405725_2779.JPEG","n03467517/n03467517_17439.JPEG","n13104059/n13104059_11280.JPEG","n03405725/n03405725_13367.JPEG","n03452741/n03452741_7768.JPEG"],"trial_ID":2,"responses":["n04515003/n04515003_3484.JPEG","n03452741/n03452741_8062.JPEG"],"rt":26723},{"internal_node_id":"0.0-9.0","time_elapsed":413366,"trial_index":9,"trial_type":"generalization","sample_node":"n02690373","trial_type2":"3_ex","condition":"subordinate_condition","nonsense_word":"pomple","train_images":["n02690373/n02690373_4115.JPEG","n02690373/n02690373_6698.JPEG","n02690373/n02690373_6798.JPEG"],"test_images":["n04451818/n04451818_1952.JPEG","n04490091/n04490091_30141.JPEG","n04451818/n04451818_27644.JPEG","n13104059/n13104059_9576.JPEG","n13104059/n13104059_504.JPEG","n03051540/n03051540_8755.JPEG","n13104059/n13104059_8540.JPEG","n04451818/n04451818_14794.JPEG","n03405725/n03405725_13521.JPEG","n13104059/n13104059_1988.JPEG","n04490091/n04490091_16551.JPEG","n03405725/n03405725_25186.JPEG","n13104059/n13104059_9916.JPEG","n03335030/n03335030_17079.JPEG","n13104059/n13104059_10152.JPEG","n04451818/n04451818_11999.JPEG","n03051540/n03051540_20380.JPEG","n04451818/n04451818_12335.JPEG","n02690373/n02690373_4943.JPEG","n02690373/n02690373_4299.JPEG","n04490091/n04490091_16080.JPEG","n03335030/n03335030_13194.JPEG","n04490091/n04490091_22324.JPEG","n13104059/n13104059_7702.JPEG"],"trial_ID":2,"responses":["n03335030/n03335030_17079.JPEG","n02690373/n02690373_4943.JPEG","n02690373/n02690373_4299.JPEG","n03335030/n03335030_13194.JPEG"],"rt":26640}],"__v":0}
{"_id":{"$oid":"59122c1734dfb20004bad607"},"data":[{"internal_node_id":"0.0-2.0","time_elapsed":88369,"trial_index":2,"trial_type":"generalization","sample_node":"n03978966","trial_type2":"1_ex","condition":"subordinate_condition","nonsense_word":"abroll","train_images":["n03978966/n03978966_14608.JPEG"],"test_images":["n03405725/n03405725_30668.JPEG","n01503061/n01503061_14540.JPEG","n04451818/n04451818_21845.JPEG","n03405725/n03405725_31342.JPEG","n03800933/n03800933_4042.JPEG","n04254777/n04254777_17120.JPEG","n03238879/n03238879_13780.JPEG","n03238879/n03238879_23015.JPEG","n03800933/n03800933_2658.JPEG","n03405725/n03405725_1837.JPEG","n01503061/n01503061_350.JPEG","n01503061/n01503061_3222.JPEG","n04254777/n04254777_14273.JPEG","n04254777/n04254777_16993.JPEG","n01503061/n01503061_21992.JPEG","n04254777/n04254777_13374.JPEG","n03978966/n03978966_2714.JPEG","n03978966/n03978966_5453.JPEG","n01503061/n01503061_10393.JPEG","n01503061/n01503061_15191.JPEG","n01503061/n01503061_13700.JPEG","n03405725/n03405725_28986.JPEG","n01503061/n01503061_11162.JPEG","n13134947/n13134947_305.JPEG"],"trial_ID":9,"responses":["n03978966/n03978966_2714.JPEG","n03978966/n03978966_5453.JPEG"],"rt":77673},{"internal_node_id":"0.0-3.0","time_elapsed":126072,"trial_index":3,"trial_type":"generalization","sample_node":"n01613294","trial_type2":"5_ex","condition":"basic-level_condition","nonsense_word":"abroll","train_images":["n01613294/n01613294_5464.JPEG","n01613294/n01613294_12887.JPEG","n01614343/n01614343_4069.JPEG","n01613294/n01613294_10051.JPEG","n01613294/n01613294_2608.JPEG"],"test_images":["n13104059/n13104059_6291.JPEG","n01621127/n01621127_13059.JPEG","n03051540/n03051540_13525.JPEG","n01614343/n01614343_7500.JPEG","n02512053/n02512053_8380.JPEG","n01614343/n01614343_4094.JPEG","n01614925/n01614925_3644.JPEG","n13104059/n13104059_3562.JPEG","n01539573/n01539573_1238.JPEG","n01621127/n01621127_1550.JPEG","n01621127/n01621127_17865.JPEG","n13134947/n13134947_454.JPEG","n04451818/n04451818_20006.JPEG","n01614925/n01614925_4106.JPEG","n02512053/n02512053_10013.JPEG","n03405725/n03405725_2367.JPEG","n04524313/n04524313_8416.JPEG","n02512053/n02512053_7664.JPEG","n04451818/n04451818_5588.JPEG","n13134947/n13134947_5103.JPEG","n13104059/n13104059_9867.JPEG","n02512053/n02512053_3204.JPEG","n03405725/n03405725_257.JPEG","n13104059/n13104059_14236.JPEG"],"trial_ID":9,"responses":["n01614343/n01614343_7500.JPEG","n01614925/n01614925_3644.JPEG"],"rt":36692},{"internal_node_id":"0.0-4.0","time_elapsed":157997,"trial_index":4,"trial_type":"generalization","sample_node":"n02587051","trial_type2":"3_ex","condition":"subordinate_condition","nonsense_word":"abroll","train_images":["n02587051/n02587051_1201.JPEG","n02587051/n02587051_1199.JPEG","n02587051/n02587051_491.JPEG"],"test_images":["n04451818/n04451818_641.JPEG","n04524313/n04524313_24647.JPEG","n13134947/n13134947_2021.JPEG","n04524313/n04524313_2424.JPEG","n03405725/n03405725_31946.JPEG","n03405725/n03405725_1436.JPEG","n03800933/n03800933_22705.JPEG","n02537085/n02537085_3809.JPEG","n01503061/n01503061_14451.JPEG","n02587300/n02587300_6449.JPEG","n02537085/n02537085_4944.JPEG","n02537085/n02537085_3992.JPEG","n03051540/n03051540_11027.JPEG","n13104059/n13104059_371.JPEG","n01503061/n01503061_1306.JPEG","n02587051/n02587051_634.JPEG","n02587051/n02587051_1244.JPEG","n04451818/n04451818_26704.JPEG","n13104059/n13104059_1645.JPEG","n02587300/n02587300_1210.JPEG","n04451818/n04451818_15469.JPEG","n03405725/n03405725_4397.JPEG","n03405725/n03405725_3301.JPEG","n02534734/n02534734_14403.JPEG"],"trial_ID":9,"responses":["n02587300/n02587300_6449.JPEG","n02587051/n02587051_634.JPEG","n02587051/n02587051_1244.JPEG"],"rt":30914},{"internal_node_id":"0.0-5.0","time_elapsed":207758,"trial_index":5,"trial_type":"generalization","sample_node":"n03474779","trial_type2":"10_ex","condition":"subordinate_condition","nonsense_word":"abroll","train_images":["n03474779/n03474779_9248.JPEG","n03474779/n03474779_20399.JPEG","n03474779/n03474779_14505.JPEG","n03474779/n03474779_8410.JPEG","n03474779/n03474779_1394.JPEG","n03474779/n03474779_3135.JPEG","n03474779/n03474779_17715.JPEG","n03474779/n03474779_19311.JPEG","n03474779/n03474779_17521.JPEG","n03474779/n03474779_3552.JPEG"],"test_images":["n04154565/n04154565_6120.JPEG","n13104059/n13104059_13281.JPEG","n03481172/n03481172_2337.JPEG","n03405725/n03405725_8838.JPEG","n02512053/n02512053_13073.JPEG","n03051540/n03051540_23015.JPEG","n03405725/n03405725_18234.JPEG","n03405725/n03405725_14211.JPEG","n03800933/n03800933_24210.JPEG","n03136504/n03136504_927.JPEG","n03481172/n03481172_9627.JPEG","n13104059/n13104059_9052.JPEG","n03405725/n03405725_5215.JPEG","n03405725/n03405725_2471.JPEG","n03405725/n03405725_16868.JPEG","n03405725/n03405725_7947.JPEG","n03405725/n03405725_14041.JPEG","n03136504/n03136504_3777.JPEG","n03800933/n03800933_15410.JPEG","n04154565/n04154565_13008.JPEG","n03405725/n03405725_33627.JPEG","n03405725/n03405725_2938.JPEG","n03474779/n03474779_4039.JPEG","n03474779/n03474779_13942.JPEG"],"trial_ID":9,"responses":["n03136504/n03136504_927.JPEG","n03136504/n03136504_3777.JPEG"],"rt":48750},{"internal_node_id":"0.0-6.0","time_elapsed":242672,"trial_index":6,"trial_type":"generalization","sample_node":"n07744246","trial_type2":"10_ex","condition":"basic-level_condition","nonsense_word":"abroll","train_images":["n07744246/n07744246_1548.JPEG","n07744246/n07744246_8628.JPEG","n07744246/n07744246_5798.JPEG","n07744682/n07744682_3244.JPEG","n07744246/n07744246_3350.JPEG","n07744246/n07744246_6001.JPEG","n07744246/n07744246_3539.JPEG","n07744246/n07744246_2385.JPEG","n07744246/n07744246_8154.JPEG","n07744246/n07744246_12259.JPEG"],"test_images":["n03405725/n03405725_34238.JPEG","n07739125/n07739125_973.JPEG","n02512053/n02512053_6964.JPEG","n07744682/n07744682_2653.JPEG","n01503061/n01503061_3816.JPEG","n07739125/n07739125_1291.JPEG","n03405725/n03405725_6074.JPEG","n07744559/n07744559_4166.JPEG","n03405725/n03405725_33682.JPEG","n03405725/n03405725_11070.JPEG","n07758680/n07758680_2167.JPEG","n07744682/n07744682_571.JPEG","n04524313/n04524313_8720.JPEG","n07744559/n07744559_886.JPEG","n03051540/n03051540_28593.JPEG","n04524313/n04524313_5650.JPEG","n07758680/n07758680_4207.JPEG","n03405725/n03405725_3917.JPEG","n04524313/n04524313_795.JPEG","n01503061/n01503061_4552.JPEG","n02512053/n02512053_7045.JPEG","n04524313/n04524313_3921.JPEG","n01503061/n01503061_9347.JPEG","n04524313/n04524313_9535.JPEG"],"trial_ID":9,"responses":["n07739125/n07739125_973.JPEG","n07739125/n07739125_1291.JPEG","n07744682/n07744682_571.JPEG"],"rt":33902},{"internal_node_id":"0.0-7.0","time_elapsed":283016,"trial_index":7,"trial_type":"generalization","sample_node":"n03201035","trial_type2":"1_ex","condition":"subordinate_condition","nonsense_word":"abroll","train_images":["n03201035/n03201035_8452.JPEG"],"test_images":["n02512053/n02512053_153.JPEG","n04524313/n04524313_8483.JPEG","n13104059/n13104059_7664.JPEG","n04524313/n04524313_4333.JPEG","n04524313/n04524313_319.JPEG","n04524313/n04524313_7625.JPEG","n04524313/n04524313_6208.JPEG","n13134947/n13134947_2598.JPEG","n04524313/n04524313_2348.JPEG","n04524313/n04524313_353.JPEG","n04524313/n04524313_8020.JPEG","n03201035/n03201035_5556.JPEG","n03001627/n03001627_1108.JPEG","n03001627/n03001627_808.JPEG","n04524313/n04524313_4913.JPEG","n04524313/n04524313_9050.JPEG","n03636248/n03636248_2148.JPEG","n02512053/n02512053_8625.JPEG","n03001627/n03001627_6360.JPEG","n03620967/n03620967_7066.JPEG","n02512053/n02512053_7690.JPEG","n03620967/n03620967_1360.JPEG","n03201035/n03201035_1999.JPEG","n13134947/n13134947_6868.JPEG"],"trial_ID":9,"responses":["n04524313/n04524313_8483.JPEG","n13104059/n13104059_7664.JPEG","n13134947/n13134947_2598.JPEG","n03001627/n03001627_808.JPEG"],"rt":39334},{"internal_node_id":"0.0-8.0","time_elapsed":295515,"trial_index":8,"trial_type":"generalization","sample_node":"n04515003","trial_type2":"1_ex","condition":"subordinate_condition","nonsense_word":"abroll","train_images":["n04515003/n04515003_7318.JPEG"],"test_images":["n04515003/n04515003_5087.JPEG","n13104059/n13104059_2783.JPEG","n03405725/n03405725_12903.JPEG","n04524313/n04524313_5934.JPEG","n03467517/n03467517_8824.JPEG","n13104059/n13104059_8514.JPEG","n04451818/n04451818_7186.JPEG","n03405725/n03405725_13367.JPEG","n03452741/n03452741_12974.JPEG","n13104059/n13104059_11280.JPEG","n04524313/n04524313_193.JPEG","n03452741/n03452741_5313.JPEG","n03405725/n03405725_29460.JPEG","n03249569/n03249569_15048.JPEG","n04451818/n04451818_11999.JPEG","n04515003/n04515003_5396.JPEG","n03405725/n03405725_29694.JPEG","n03467517/n03467517_17439.JPEG","n03405725/n03405725_2779.JPEG","n13134947/n13134947_5162.JPEG","n04524313/n04524313_1318.JPEG","n13104059/n13104059_7655.JPEG","n03051540/n03051540_39426.JPEG","n03467517/n03467517_8085.JPEG"],"trial_ID":9,"responses":["n04515003/n04515003_5087.JPEG"],"rt":11485},{"internal_node_id":"0.0-9.0","time_elapsed":316985,"trial_index":9,"trial_type":"generalization","sample_node":"n04524313","trial_type2":"5_ex","condition":"superordinate_condition","nonsense_word":"abroll","train_images":["n02690373/n02690373_6698.JPEG","n04524313/n04524313_1078.JPEG","n04524313/n04524313_5466.JPEG","n04524313/n04524313_8124.JPEG","n04524313/n04524313_4635.JPEG"],"test_images":["n04451818/n04451818_11999.JPEG","n04490091/n04490091_30141.JPEG","n04490091/n04490091_16080.JPEG","n03051540/n03051540_8755.JPEG","n13104059/n13104059_8540.JPEG","n03335030/n03335030_17079.JPEG","n03405725/n03405725_13521.JPEG","n04451818/n04451818_12335.JPEG","n04451818/n04451818_1952.JPEG","n03335030/n03335030_13194.JPEG","n13104059/n13104059_9916.JPEG","n04490091/n04490091_16551.JPEG","n13104059/n13104059_1988.JPEG","n04451818/n04451818_27644.JPEG","n13104059/n13104059_7702.JPEG","n02690373/n02690373_4943.JPEG","n13104059/n13104059_10152.JPEG","n03051540/n03051540_20380.JPEG","n13104059/n13104059_9576.JPEG","n04451818/n04451818_14794.JPEG","n04490091/n04490091_22324.JPEG","n03405725/n03405725_25186.JPEG","n02690373/n02690373_4299.JPEG","n13104059/n13104059_504.JPEG"],"trial_ID":9,"responses":["n04490091/n04490091_30141.JPEG","n04490091/n04490091_16080.JPEG","n03335030/n03335030_17079.JPEG","n04490091/n04490091_16551.JPEG","n02690373/n02690373_4943.JPEG","n04490091/n04490091_22324.JPEG","n02690373/n02690373_4299.JPEG"],"rt":20457}],"__v":0}
{"_id":{"$oid":"59122cd834dfb20004bad608"},"data":[{"internal_node_id":"0.0-2.0","time_elapsed":113995,"trial_index":2,"trial_type":"generalization","sample_node":"n03238879","trial_type2":"5_ex","condition":"subordinate_condition","nonsense_word":"rephan","train_images":["n03238879/n03238879_9037.JPEG","n03238879/n03238879_17901.JPEG","n03238879/n03238879_7718.JPEG","n03238879/n03238879_14170.JPEG","n03238879/n03238879_22538.JPEG"],"test_images":["n13134947/n13134947_305.JPEG","n03238879/n03238879_9652.JPEG","n04254777/n04254777_16993.JPEG","n04254777/n04254777_14273.JPEG","n04254777/n04254777_17120.JPEG","n01503061/n01503061_14540.JPEG","n01503061/n01503061_21992.JPEG","n03405725/n03405725_31342.JPEG","n03978966/n03978966_8164.JPEG","n01503061/n01503061_3222.JPEG","n03405725/n03405725_28986.JPEG","n03405725/n03405725_1837.JPEG","n04254777/n04254777_13374.JPEG","n03800933/n03800933_4042.JPEG","n03405725/n03405725_30668.JPEG","n03978966/n03978966_12215.JPEG","n01503061/n01503061_15191.JPEG","n03238879/n03238879_15243.JPEG","n01503061/n01503061_350.JPEG","n01503061/n01503061_11162.JPEG","n04451818/n04451818_21845.JPEG","n01503061/n01503061_13700.JPEG","n01503061/n01503061_10393.JPEG","n03800933/n03800933_2658.JPEG"],"trial_ID":12,"responses":["n03238879/n03238879_9652.JPEG","n04254777/n04254777_17120.JPEG","n03978966/n03978966_8164.JPEG","n03978966/n03978966_12215.JPEG","n03238879/n03238879_15243.JPEG"],"rt":107714},{"internal_node_id":"0.0-3.0","time_elapsed":146445,"trial_index":3,"trial_type":"generalization","sample_node":"n01539573","trial_type2":"10_ex","condition":"basic-level_condition","nonsense_word":"rephan","train_images":["n01539573/n01539573_10540.JPEG","n01539573/n01539573_6320.JPEG","n01539573/n01539573_6758.JPEG","n01539573/n01539573_1672.JPEG","n01539573/n01539573_14463.JPEG","n01539573/n01539573_10686.JPEG","n01539573/n01539573_3882.JPEG","n01539573/n01539573_3491.JPEG","n01536186/n01536186_3180.JPEG","n01539573/n01539573_4002.JPEG"],"test_images":["n01613294/n01613294_4638.JPEG","n01536186/n01536186_4362.JPEG","n13134947/n13134947_454.JPEG","n13104059/n13104059_3562.JPEG","n13104059/n13104059_6291.JPEG","n01613294/n01613294_3086.JPEG","n03405725/n03405725_2367.JPEG","n02512053/n02512053_8380.JPEG","n01536644/n01536644_6571.JPEG","n13104059/n13104059_9867.JPEG","n01536644/n01536644_8617.JPEG","n13104059/n13104059_14236.JPEG","n04524313/n04524313_8416.JPEG","n02512053/n02512053_3204.JPEG","n03051540/n03051540_13525.JPEG","n01536186/n01536186_3437.JPEG","n02512053/n02512053_10013.JPEG","n13134947/n13134947_5103.JPEG","n02512053/n02512053_7664.JPEG","n03405725/n03405725_257.JPEG","n01621127/n01621127_8966.JPEG","n04451818/n04451818_5588.JPEG","n04451818/n04451818_20006.JPEG","n01621127/n01621127_13317.JPEG"],"trial_ID":12,"responses":["n01613294/n01613294_4638.JPEG","n01536186/n01536186_4362.JPEG","n01613294/n01613294_3086.JPEG","n02512053/n02512053_8380.JPEG","n01536644/n01536644_6571.JPEG","n01536644/n01536644_8617.JPEG","n01536186/n01536186_3437.JPEG","n01621127/n01621127_13317.JPEG"],"rt":31419},{"internal_node_id":"0.0-4.0","time_elapsed":180799,"trial_index":4,"trial_type":"generalization","sample_node":"n02535537","trial_type2":"3_ex","condition":"subordinate_condition","nonsense_word":"rephan","train_images":["n02535537/n02535537_17651.JPEG","n02535537/n02535537_10207.JPEG","n02535537/n02535537_16549.JPEG"],"test_images":["n13104059/n13104059_371.JPEG","n03405725/n03405725_4397.JPEG","n03405725/n03405725_1436.JPEG","n02537085/n02537085_8779.JPEG","n13104059/n13104059_1645.JPEG","n13134947/n13134947_2021.JPEG","n03800933/n03800933_22705.JPEG","n04524313/n04524313_24647.JPEG","n02586543/n02586543_1773.JPEG","n02536456/n02536456_2660.JPEG","n02535537/n02535537_17196.JPEG","n03405725/n03405725_31946.JPEG","n01503061/n01503061_14451.JPEG","n02536456/n02536456_5209.JPEG","n04451818/n04451818_26704.JPEG","n01503061/n01503061_1306.JPEG","n04451818/n04451818_15469.JPEG","n03051540/n03051540_11027.JPEG","n03405725/n03405725_3301.JPEG","n04451818/n04451818_641.JPEG","n02537085/n02537085_11422.JPEG","n02535537/n02535537_11679.JPEG","n04524313/n04524313_2424.JPEG","n02537085/n02537085_280.JPEG"],"trial_ID":12,"responses":["n02537085/n02537085_8779.JPEG","n02586543/n02586543_1773.JPEG","n02536456/n02536456_2660.JPEG","n02535537/n02535537_17196.JPEG","n02537085/n02537085_11422.JPEG","n02535537/n02535537_11679.JPEG","n02537085/n02537085_280.JPEG"],"rt":33323},{"internal_node_id":"0.0-5.0","time_elapsed":208597,"trial_index":5,"trial_type":"generalization","sample_node":"n03136504","trial_type2":"10_ex","condition":"subordinate_condition","nonsense_word":"rephan","train_images":["n03136504/n03136504_3020.JPEG","n03136504/n03136504_3622.JPEG","n03136504/n03136504_4679.JPEG","n03136504/n03136504_9131.JPEG","n03136504/n03136504_8456.JPEG","n03136504/n03136504_8472.JPEG","n03136504/n03136504_1664.JPEG","n03136504/n03136504_906.JPEG","n03136504/n03136504_6574.JPEG","n03136504/n03136504_3564.JPEG"],"test_images":["n03405725/n03405725_2471.JPEG","n03136504/n03136504_7312.JPEG","n13104059/n13104059_9052.JPEG","n03136504/n03136504_2618.JPEG","n03405725/n03405725_14211.JPEG","n03405725/n03405725_33627.JPEG","n03405725/n03405725_2938.JPEG","n03481172/n03481172_2337.JPEG","n03481172/n03481172_9627.JPEG","n04154565/n04154565_6120.JPEG","n03405725/n03405725_7947.JPEG","n04154565/n04154565_13008.JPEG","n03474779/n03474779_122.JPEG","n03405725/n03405725_16868.JPEG","n03405725/n03405725_8838.JPEG","n03405725/n03405725_14041.JPEG","n03405725/n03405725_5215.JPEG","n03800933/n03800933_15410.JPEG","n03800933/n03800933_24210.JPEG","n03051540/n03051540_23015.JPEG","n03405725/n03405725_18234.JPEG","n13104059/n13104059_13281.JPEG","n02512053/n02512053_13073.JPEG","n03474779/n03474779_18010.JPEG"],"trial_ID":12,"responses":["n03136504/n03136504_7312.JPEG","n03136504/n03136504_2618.JPEG","n03474779/n03474779_18010.JPEG"],"rt":26776},{"internal_node_id":"0.0-6.0","time_elapsed":228188,"trial_index":6,"trial_type":"generalization","sample_node":"n07740220","trial_type2":"3_ex","condition":"subordinate_condition","nonsense_word":"rephan","train_images":["n07740220/n07740220_11442.JPEG","n07740220/n07740220_13112.JPEG","n07740220/n07740220_15143.JPEG"],"test_images":["n07744246/n07744246_3525.JPEG","n07744246/n07744246_17216.JPEG","n03405725/n03405725_6074.JPEG","n07740220/n07740220_12826.JPEG","n04524313/n04524313_5650.JPEG","n03405725/n03405725_34238.JPEG","n07740954/n07740954_15172.JPEG","n03405725/n03405725_33682.JPEG","n04524313/n04524313_795.JPEG","n03405725/n03405725_3917.JPEG","n04524313/n04524313_3921.JPEG","n02512053/n02512053_6964.JPEG","n04524313/n04524313_8720.JPEG","n04524313/n04524313_9535.JPEG","n02512053/n02512053_7045.JPEG","n07740954/n07740954_4357.JPEG","n03051540/n03051540_28593.JPEG","n01503061/n01503061_4552.JPEG","n03405725/n03405725_11070.JPEG","n01503061/n01503061_9347.JPEG","n01503061/n01503061_3816.JPEG","n07758680/n07758680_13731.JPEG","n07740220/n07740220_1775.JPEG","n07744246/n07744246_12334.JPEG"],"trial_ID":12,"responses":["n07744246/n07744246_17216.JPEG","n07740220/n07740220_12826.JPEG","n07740954/n07740954_15172.JPEG","n07740954/n07740954_4357.JPEG","n07740220/n07740220_1775.JPEG","n07744246/n07744246_12334.JPEG"],"rt":18567},{"internal_node_id":"0.0-7.0","time_elapsed":249401,"trial_index":7,"trial_type":"generalization","sample_node":"n03636248","trial_type2":"5_ex","condition":"basic-level_condition","nonsense_word":"rephan","train_images":["n04380533/n04380533_1312.JPEG","n03636248/n03636248_9992.JPEG","n03636248/n03636248_8623.JPEG","n03636248/n03636248_5031.JPEG","n03636248/n03636248_19326.JPEG"],"test_images":["n04524313/n04524313_353.JPEG","n13134947/n13134947_6868.JPEG","n13104059/n13104059_7664.JPEG","n04379243/n04379243_28629.JPEG","n02512053/n02512053_7690.JPEG","n04380533/n04380533_498.JPEG","n03367059/n03367059_8697.JPEG","n04524313/n04524313_6208.JPEG","n04379243/n04379243_15121.JPEG","n04524313/n04524313_319.JPEG","n04524313/n04524313_4333.JPEG","n02512053/n02512053_153.JPEG","n02512053/n02512053_8625.JPEG","n04380533/n04380533_3284.JPEG","n04524313/n04524313_9050.JPEG","n04379243/n04379243_21929.JPEG","n04524313/n04524313_4913.JPEG","n04524313/n04524313_8020.JPEG","n04524313/n04524313_2348.JPEG","n03367059/n03367059_6718.JPEG","n04379243/n04379243_19723.JPEG","n04524313/n04524313_8483.JPEG","n04524313/n04524313_7625.JPEG","n13134947/n13134947_2598.JPEG"],"trial_ID":12,"responses":["n04380533/n04380533_498.JPEG","n04380533/n04380533_3284.JPEG","n03367059/n03367059_6718.JPEG"],"rt":20187},{"internal_node_id":"0.0-8.0","time_elapsed":272781,"trial_index":8,"trial_type":"generalization","sample_node":"n03272010","trial_type2":"5_ex","condition":"subordinate_condition","nonsense_word":"rephan","train_images":["n03272010/n03272010_1448.JPEG","n03272010/n03272010_2709.JPEG","n03272010/n03272010_4865.JPEG","n03272010/n03272010_5218.JPEG","n03272010/n03272010_1114.JPEG"],"test_images":["n03272010/n03272010_4212.JPEG","n13104059/n13104059_8514.JPEG","n03249569/n03249569_23220.JPEG","n04451818/n04451818_7186.JPEG","n04524313/n04524313_5934.JPEG","n03051540/n03051540_39426.JPEG","n02676566/n02676566_7510.JPEG","n03272010/n03272010_6264.JPEG","n04451818/n04451818_11999.JPEG","n13134947/n13134947_5162.JPEG","n04524313/n04524313_1318.JPEG","n03405725/n03405725_2779.JPEG","n03405725/n03405725_29460.JPEG","n03405725/n03405725_12903.JPEG","n03405725/n03405725_13367.JPEG","n03249569/n03249569_36361.JPEG","n13104059/n13104059_2783.JPEG","n03928116/n03928116_38581.JPEG","n13104059/n13104059_7655.JPEG","n02676566/n02676566_3482.JPEG","n03405725/n03405725_29694.JPEG","n13104059/n13104059_11280.JPEG","n03249569/n03249569_36234.JPEG","n04524313/n04524313_193.JPEG"],"trial_ID":12,"responses":["n03272010/n03272010_4212.JPEG","n02676566/n02676566_7510.JPEG","n03272010/n03272010_6264.JPEG","n02676566/n02676566_3482.JPEG"],"rt":22354},{"internal_node_id":"0.0-9.0","time_elapsed":286905,"trial_index":9,"trial_type":"generalization","sample_node":"n03930630","trial_type2":"10_ex","condition":"subordinate_condition","nonsense_word":"rephan","train_images":["n03930630/n03930630_2176.JPEG","n03930630/n03930630_128.JPEG","n03930630/n03930630_13087.JPEG","n03930630/n03930630_12968.JPEG","n03930630/n03930630_10905.JPEG","n03930630/n03930630_4915.JPEG","n03930630/n03930630_19547.JPEG","n03930630/n03930630_3001.JPEG","n03930630/n03930630_3097.JPEG","n03930630/n03930630_1112.JPEG"],"test_images":["n04451818/n04451818_27644.JPEG","n13104059/n13104059_10152.JPEG","n04451818/n04451818_11999.JPEG","n03051540/n03051540_20380.JPEG","n04451818/n04451818_14794.JPEG","n02691156/n02691156_10932.JPEG","n03405725/n03405725_25186.JPEG","n02958343/n02958343_13733.JPEG","n03051540/n03051540_8755.JPEG","n03930630/n03930630_884.JPEG","n04451818/n04451818_1952.JPEG","n03930630/n03930630_18748.JPEG","n03405725/n03405725_13521.JPEG","n13104059/n13104059_504.JPEG","n13104059/n13104059_1988.JPEG","n04467665/n04467665_4401.JPEG","n02691156/n02691156_1085.JPEG","n13104059/n13104059_7702.JPEG","n13104059/n13104059_9576.JPEG","n13104059/n13104059_8540.JPEG","n02958343/n02958343_5257.JPEG","n13104059/n13104059_9916.JPEG","n04467665/n04467665_33716.JPEG","n04451818/n04451818_12335.JPEG"],"trial_ID":12,"responses":["n03930630/n03930630_884.JPEG","n03930630/n03930630_18748.JPEG"],"rt":13104}],"__v":0}
{"_id":{"$oid":"59122cdb34dfb20004bad609"},"data":[{"internal_node_id":"0.0-2.0","time_elapsed":90842,"trial_index":2,"trial_type":"generalization","sample_node":"n04370288","trial_type2":"5_ex","condition":"subordinate_condition","nonsense_word":"rephan","train_images":["n04370288/n04370288_2016.JPEG","n04370288/n04370288_670.JPEG","n04370288/n04370288_409.JPEG","n04370288/n04370288_1558.JPEG","n04370288/n04370288_1016.JPEG"],"test_images":["n04254777/n04254777_18265.JPEG","n01503061/n01503061_350.JPEG","n04370288/n04370288_4563.JPEG","n03405725/n03405725_28986.JPEG","n03800933/n03800933_4042.JPEG","n03800933/n03800933_2658.JPEG","n01503061/n01503061_3222.JPEG","n01503061/n01503061_10393.JPEG","n03594734/n03594734_3377.JPEG","n03405725/n03405725_31342.JPEG","n13134947/n13134947_305.JPEG","n01503061/n01503061_14540.JPEG","n04197391/n04197391_12978.JPEG","n01503061/n01503061_15191.JPEG","n04451818/n04451818_21845.JPEG","n04370288/n04370288_653.JPEG","n01503061/n01503061_11162.JPEG","n03405725/n03405725_1837.JPEG","n03405725/n03405725_30668.JPEG","n01503061/n01503061_13700.JPEG","n04197391/n04197391_8402.JPEG","n03594734/n03594734_3117.JPEG","n04197391/n04197391_8590.JPEG","n01503061/n01503061_21992.JPEG"],"trial_ID":11,"responses":["n04370288/n04370288_4563.JPEG","n04370288/n04370288_653.JPEG"],"rt":66440},{"internal_node_id":"0.0-3.0","time_elapsed":170220,"trial_index":3,"trial_type":"generalization","sample_node":"n01613294","trial_type2":"10_ex","condition":"basic-level_condition","nonsense_word":"rephan","train_images":["n01613294/n01613294_10051.JPEG","n01613294/n01613294_7945.JPEG","n01613294/n01613294_11216.JPEG","n01614343/n01614343_4069.JPEG","n01613294/n01613294_2169.JPEG","n01613294/n01613294_2608.JPEG","n01613294/n01613294_12887.JPEG","n01613294/n01613294_2562.JPEG","n01613294/n01613294_5840.JPEG","n01613294/n01613294_5464.JPEG"],"test_images":["n01539573/n01539573_1238.JPEG","n13134947/n13134947_454.JPEG","n02512053/n02512053_10013.JPEG","n02512053/n02512053_3204.JPEG","n01614343/n01614343_7500.JPEG","n13104059/n13104059_14236.JPEG","n01614925/n01614925_4106.JPEG","n01621127/n01621127_13059.JPEG","n01621127/n01621127_1550.JPEG","n04451818/n04451818_5588.JPEG","n13134947/n13134947_5103.JPEG","n13104059/n13104059_3562.JPEG","n02512053/n02512053_7664.JPEG","n03405725/n03405725_2367.JPEG","n02512053/n02512053_8380.JPEG","n04451818/n04451818_20006.JPEG","n01614343/n01614343_4094.JPEG","n13104059/n13104059_6291.JPEG","n01614925/n01614925_3644.JPEG","n01621127/n01621127_17865.JPEG","n13104059/n13104059_9867.JPEG","n03051540/n03051540_13525.JPEG","n04524313/n04524313_8416.JPEG","n03405725/n03405725_257.JPEG"],"trial_ID":11,"responses":["n01614343/n01614343_7500.JPEG","n01614925/n01614925_4106.JPEG","n01614343/n01614343_4094.JPEG","n01614925/n01614925_3644.JPEG"],"rt":76867},{"internal_node_id":"0.0-4.0","time_elapsed":209823,"trial_index":4,"trial_type":"generalization","sample_node":"n02587300","trial_type2":"3_ex","condition":"subordinate_condition","nonsense_word":"rephan","train_images":["n02587300/n02587300_2301.JPEG","n02587300/n02587300_6699.JPEG","n02587300/n02587300_4469.JPEG"],"test_images":["n03800933/n03800933_22705.JPEG","n02534734/n02534734_14403.JPEG","n03051540/n03051540_11027.JPEG","n02537085/n02537085_3809.JPEG","n04451818/n04451818_26704.JPEG","n02587300/n02587300_1824.JPEG","n02587300/n02587300_4980.JPEG","n03405725/n03405725_4397.JPEG","n13134947/n13134947_2021.JPEG","n01503061/n01503061_14451.JPEG","n02537085/n02537085_4944.JPEG","n04451818/n04451818_15469.JPEG","n02537085/n02537085_3992.JPEG","n02587051/n02587051_739.JPEG","n03405725/n03405725_1436.JPEG","n04451818/n04451818_641.JPEG","n03405725/n03405725_31946.JPEG","n13104059/n13104059_371.JPEG","n04524313/n04524313_2424.JPEG","n03405725/n03405725_3301.JPEG","n04524313/n04524313_24647.JPEG","n01503061/n01503061_1306.JPEG","n13104059/n13104059_1645.JPEG","n02587051/n02587051_241.JPEG"],"trial_ID":11,"responses":["n02534734/n02534734_14403.JPEG","n02537085/n02537085_3809.JPEG","n02587300/n02587300_1824.JPEG","n02587300/n02587300_4980.JPEG","n02537085/n02537085_3992.JPEG","n02587051/n02587051_739.JPEG","n02587051/n02587051_241.JPEG"],"rt":38018},{"internal_node_id":"0.0-5.0","time_elapsed":240171,"trial_index":5,"trial_type":"generalization","sample_node":"n04451818","trial_type2":"10_ex","condition":"superordinate_condition","nonsense_word":"rephan","train_images":["n04451818/n04451818_24994.JPEG","n04451818/n04451818_10197.JPEG","n04451818/n04451818_8236.JPEG","n04451818/n04451818_6381.JPEG","n04451818/n04451818_26504.JPEG","n04451818/n04451818_1827.JPEG","n04451818/n04451818_15821.JPEG","n04451818/n04451818_7583.JPEG","n04451818/n04451818_2584.JPEG","n03474779/n03474779_19311.JPEG"],"test_images":["n03405725/n03405725_2471.JPEG","n03481172/n03481172_2337.JPEG","n03474779/n03474779_13942.JPEG","n03405725/n03405725_7947.JPEG","n03405725/n03405725_18234.JPEG","n03405725/n03405725_14041.JPEG","n13104059/n13104059_9052.JPEG","n03136504/n03136504_3777.JPEG","n03136504/n03136504_927.JPEG","n13104059/n13104059_13281.JPEG","n04154565/n04154565_13008.JPEG","n03405725/n03405725_14211.JPEG","n03474779/n03474779_4039.JPEG","n03405725/n03405725_5215.JPEG","n03481172/n03481172_9627.JPEG","n03405725/n03405725_33627.JPEG","n03405725/n03405725_8838.JPEG","n03405725/n03405725_16868.JPEG","n03800933/n03800933_24210.JPEG","n03051540/n03051540_23015.JPEG","n03800933/n03800933_15410.JPEG","n03405725/n03405725_2938.JPEG","n02512053/n02512053_13073.JPEG","n04154565/n04154565_6120.JPEG"],"trial_ID":11,"responses":["n03481172/n03481172_2337.JPEG","n03474779/n03474779_13942.JPEG","n03136504/n03136504_3777.JPEG","n03136504/n03136504_927.JPEG","n04154565/n04154565_13008.JPEG","n03474779/n03474779_4039.JPEG","n03481172/n03481172_9627.JPEG"],"rt":28684},{"internal_node_id":"0.0-6.0","time_elapsed":255165,"trial_index":6,"trial_type":"generalization","sample_node":"n07744682","trial_type2":"10_ex","condition":"subordinate_condition","nonsense_word":"rephan","train_images":["n07744682/n07744682_4908.JPEG","n07744682/n07744682_7118.JPEG","n07744682/n07744682_228.JPEG","n07744682/n07744682_6112.JPEG","n07744682/n07744682_6368.JPEG","n07744682/n07744682_4272.JPEG","n07744682/n07744682_184.JPEG","n07744682/n07744682_4709.JPEG","n07744682/n07744682_3244.JPEG","n07744682/n07744682_5026.JPEG"],"test_images":["n07744682/n07744682_571.JPEG","n01503061/n01503061_4552.JPEG","n01503061/n01503061_9347.JPEG","n04524313/n04524313_795.JPEG","n04524313/n04524313_8720.JPEG","n03405725/n03405725_33682.JPEG","n04524313/n04524313_9535.JPEG","n07744559/n07744559_4166.JPEG","n07758680/n07758680_4207.JPEG","n03405725/n03405725_3917.JPEG","n07744559/n07744559_886.JPEG","n03405725/n03405725_11070.JPEG","n07739125/n07739125_973.JPEG","n02512053/n02512053_6964.JPEG","n07758680/n07758680_2167.JPEG","n07744682/n07744682_2653.JPEG","n02512053/n02512053_7045.JPEG","n03405725/n03405725_34238.JPEG","n03405725/n03405725_6074.JPEG","n01503061/n01503061_3816.JPEG","n07739125/n07739125_1291.JPEG","n04524313/n04524313_5650.JPEG","n03051540/n03051540_28593.JPEG","n04524313/n04524313_3921.JPEG"],"trial_ID":11,"responses":["n07744682/n07744682_571.JPEG"],"rt":13762},{"internal_node_id":"0.0-7.0","time_elapsed":310617,"trial_index":7,"trial_type":"generalization","sample_node":"n03405725","trial_type2":"5_ex","condition":"superordinate_condition","nonsense_word":"rephan","train_images":["n03405725/n03405725_28683.JPEG","n02738535/n02738535_28181.JPEG","n03405725/n03405725_32489.JPEG","n03405725/n03405725_28068.JPEG","n03405725/n03405725_23875.JPEG"],"test_images":["n04524313/n04524313_8020.JPEG","n02512053/n02512053_7690.JPEG","n03636248/n03636248_11461.JPEG","n13134947/n13134947_2598.JPEG","n04524313/n04524313_8483.JPEG","n04524313/n04524313_7625.JPEG","n02738535/n02738535_3220.JPEG","n04379243/n04379243_15436.JPEG","n04524313/n04524313_6208.JPEG","n04331277/n04331277_9171.JPEG","n13104059/n13104059_7664.JPEG","n02512053/n02512053_153.JPEG","n04524313/n04524313_319.JPEG","n04524313/n04524313_2348.JPEG","n02512053/n02512053_8625.JPEG","n04331277/n04331277_7958.JPEG","n04524313/n04524313_4333.JPEG","n04524313/n04524313_9050.JPEG","n04524313/n04524313_4913.JPEG","n02738535/n02738535_8772.JPEG","n04524313/n04524313_353.JPEG","n03636248/n03636248_22423.JPEG","n04379243/n04379243_13727.JPEG","n13134947/n13134947_6868.JPEG"],"trial_ID":11,"responses":["n04331277/n04331277_9171.JPEG","n04379243/n04379243_13727.JPEG"],"rt":53646},{"internal_node_id":"0.0-8.0","time_elapsed":326523,"trial_index":8,"trial_type":"generalization","sample_node":"n03452741","trial_type2":"1_ex","condition":"subordinate_condition","nonsense_word":"rephan","train_images":["n03452741/n03452741_9668.JPEG"],"test_images":["n03051540/n03051540_39426.JPEG","n04515003/n04515003_3484.JPEG","n03452741/n03452741_7768.JPEG","n13104059/n13104059_7655.JPEG","n03405725/n03405725_29460.JPEG","n03467517/n03467517_8085.JPEG","n04515003/n04515003_6297.JPEG","n03405725/n03405725_2779.JPEG","n03405725/n03405725_13367.JPEG","n03249569/n03249569_15048.JPEG","n13104059/n13104059_2783.JPEG","n04524313/n04524313_5934.JPEG","n03405725/n03405725_12903.JPEG","n03405725/n03405725_29694.JPEG","n03452741/n03452741_8062.JPEG","n13104059/n13104059_8514.JPEG","n03467517/n03467517_8824.JPEG","n04524313/n04524313_1318.JPEG","n13104059/n13104059_11280.JPEG","n03467517/n03467517_17439.JPEG","n04451818/n04451818_7186.JPEG","n13134947/n13134947_5162.JPEG","n04451818/n04451818_11999.JPEG","n04524313/n04524313_193.JPEG"],"trial_ID":11,"responses":["n04515003/n04515003_3484.JPEG","n03452741/n03452741_7768.JPEG","n03452741/n03452741_8062.JPEG"],"rt":14141},{"internal_node_id":"0.0-9.0","time_elapsed":353613,"trial_index":9,"trial_type":"generalization","sample_node":"n04285008","trial_type2":"3_ex","condition":"subordinate_condition","nonsense_word":"rephan","train_images":["n04285008/n04285008_6360.JPEG","n04285008/n04285008_7371.JPEG","n04285008/n04285008_88.JPEG"],"test_images":["n04451818/n04451818_1952.JPEG","n03051540/n03051540_8755.JPEG","n04490091/n04490091_26530.JPEG","n02691156/n02691156_2701.JPEG","n02691156/n02691156_49936.JPEG","n13104059/n13104059_7702.JPEG","n04451818/n04451818_12335.JPEG","n13104059/n13104059_504.JPEG","n04451818/n04451818_27644.JPEG","n13104059/n13104059_10152.JPEG","n13104059/n13104059_9916.JPEG","n03405725/n03405725_13521.JPEG","n04166281/n04166281_21916.JPEG","n04166281/n04166281_11527.JPEG","n13104059/n13104059_9576.JPEG","n13104059/n13104059_8540.JPEG","n04451818/n04451818_11999.JPEG","n13104059/n13104059_1988.JPEG","n04490091/n04490091_5639.JPEG","n04285008/n04285008_11756.JPEG","n03051540/n03051540_20380.JPEG","n03405725/n03405725_25186.JPEG","n04451818/n04451818_14794.JPEG","n04285008/n04285008_13470.JPEG"],"trial_ID":11,"responses":["n04166281/n04166281_21916.JPEG","n04166281/n04166281_11527.JPEG","n04285008/n04285008_11756.JPEG","n04285008/n04285008_13470.JPEG"],"rt":25396}],"__v":0}
