{"_id":{"$oid":"591bc89e33631200049fb44e"},"data":[{"internal_node_id":"0.0-2.0","time_elapsed":20150,"trial_index":2,"trial_type":"generalization","sample_node":"n04285008","trial_type2":"5_ex","condition":"subordinate_condition","nonsense_word":"claine","train_images":["n04285008/n04285008_14273.JPEG","n04285008/n04285008_6313.JPEG","n04285008/n04285008_8495.JPEG","n04285008/n04285008_13054.JPEG","n04285008/n04285008_8035.JPEG"],"test_images":["n03800933/n03800933_9728.JPEG","n13134947/n13134947_4246.JPEG","n04451818/n04451818_3806.JPEG","n03800933/n03800933_669.JPEG","n04166281/n04166281_21386.JPEG","n04490091/n04490091_269.JPEG","n04285008/n04285008_8761.JPEG","n01503061/n01503061_5839.JPEG","n04285008/n04285008_15071.JPEG","n02691156/n02691156_9641.JPEG","n04451818/n04451818_9138.JPEG","n13134947/n13134947_11305.JPEG","n04490091/n04490091_12735.JPEG","n02512053/n02512053_5176.JPEG","n01503061/n01503061_10682.JPEG","n04166281/n04166281_17604.JPEG","n03051540/n03051540_7502.JPEG","n01503061/n01503061_10939.JPEG","n03800933/n03800933_11100.JPEG","n02691156/n02691156_43470.JPEG","n13134947/n13134947_6674.JPEG","n01503061/n01503061_8507.JPEG","n02512053/n02512053_4011.JPEG","n04451818/n04451818_21400.JPEG"],"trial_ID":4,"responses":["n04166281/n04166281_21386.JPEG","n04285008/n04285008_8761.JPEG","n04285008/n04285008_15071.JPEG"],"rt":14421},{"internal_node_id":"0.0-3.0","time_elapsed":28845,"trial_index":3,"trial_type":"generalization","sample_node":"n03978966","trial_type2":"5_ex","condition":"subordinate_condition","nonsense_word":"stuyer","train_images":["n03978966/n03978966_10574.JPEG","n03978966/n03978966_7556.JPEG","n03978966/n03978966_13445.JPEG","n03978966/n03978966_12739.JPEG","n03978966/n03978966_6286.JPEG"],"test_images":["n01503061/n01503061_3442.JPEG","n03238879/n03238879_1420.JPEG","n03800933/n03800933_4380.JPEG","n03405725/n03405725_162.JPEG","n01503061/n01503061_3325.JPEG","n03978966/n03978966_9552.JPEG","n03978966/n03978966_8793.JPEG","n13134947/n13134947_12594.JPEG","n13134947/n13134947_5659.JPEG","n02512053/n02512053_5407.JPEG","n02512053/n02512053_12335.JPEG","n13104059/n13104059_8244.JPEG","n04451818/n04451818_3267.JPEG","n04489008/n04489008_24215.JPEG","n04254777/n04254777_20819.JPEG","n04254777/n04254777_3245.JPEG","n04254777/n04254777_5816.JPEG","n03405725/n03405725_1713.JPEG","n04451818/n04451818_23048.JPEG","n13104059/n13104059_10550.JPEG","n01503061/n01503061_9979.JPEG","n01503061/n01503061_6132.JPEG","n04451818/n04451818_15565.JPEG","n03238879/n03238879_4289.JPEG"],"trial_ID":4,"responses":["n03238879/n03238879_1420.JPEG","n03978966/n03978966_9552.JPEG","n03238879/n03238879_4289.JPEG"],"rt":7670},{"internal_node_id":"0.0-4.0","time_elapsed":38334,"trial_index":4,"trial_type":"generalization","sample_node":"n01622779","trial_type2":"3_ex","condition":"subordinate_condition","nonsense_word":"aftion","train_images":["n01622779/n01622779_4662.JPEG","n01622779/n01622779_2975.JPEG","n01622779/n01622779_2794.JPEG"],"test_images":["n03800933/n03800933_4806.JPEG","n03051540/n03051540_20566.JPEG","n01625562/n01625562_1108.JPEG","n04451818/n04451818_14032.JPEG","n01625562/n01625562_2472.JPEG","n13104059/n13104059_5313.JPEG","n04451818/n04451818_685.JPEG","n01622779/n01622779_2013.JPEG","n03051540/n03051540_51100.JPEG","n01622779/n01622779_308.JPEG","n04524313/n04524313_2921.JPEG","n03800933/n03800933_4470.JPEG","n04524313/n04524313_333.JPEG","n03051540/n03051540_52966.JPEG","n04451818/n04451818_747.JPEG","n02512053/n02512053_1208.JPEG","n13134947/n13134947_1832.JPEG","n01613294/n01613294_3391.JPEG","n01613294/n01613294_2168.JPEG","n13134947/n13134947_5684.JPEG","n03051540/n03051540_19899.JPEG","n01613294/n01613294_1697.JPEG","n01613294/n01613294_10295.JPEG","n03051540/n03051540_24888.JPEG"],"trial_ID":4,"responses":["n01625562/n01625562_1108.JPEG","n01625562/n01625562_2472.JPEG","n01622779/n01622779_2013.JPEG","n01622779/n01622779_308.JPEG","n01613294/n01613294_1697.JPEG","n01613294/n01613294_10295.JPEG"],"rt":8465},{"internal_node_id":"0.0-5.0","time_elapsed":55053,"trial_index":5,"trial_type":"generalization","sample_node":"n03367059","trial_type2":"3_ex","condition":"subordinate_condition","nonsense_word":"rephan","train_images":["n03367059/n03367059_119.JPEG","n03367059/n03367059_8676.JPEG","n03367059/n03367059_1664.JPEG"],"test_images":["n03800933/n03800933_10337.JPEG","n03800933/n03800933_2010.JPEG","n04380533/n04380533_3495.JPEG","n04379243/n04379243_11806.JPEG","n04524313/n04524313_379.JPEG","n04524313/n04524313_5735.JPEG","n04379243/n04379243_15108.JPEG","n01503061/n01503061_611.JPEG","n02512053/n02512053_335.JPEG","n04379243/n04379243_26551.JPEG","n01503061/n01503061_7969.JPEG","n04380533/n04380533_2321.JPEG","n04524313/n04524313_1343.JPEG","n01503061/n01503061_6791.JPEG","n03051540/n03051540_11557.JPEG","n03051540/n03051540_14235.JPEG","n03001627/n03001627_16418.JPEG","n03367059/n03367059_1059.JPEG","n03051540/n03051540_6467.JPEG","n01503061/n01503061_1649.JPEG","n01503061/n01503061_15239.JPEG","n03367059/n03367059_5438.JPEG","n01503061/n01503061_459.JPEG","n03051540/n03051540_4256.JPEG"],"trial_ID":4,"responses":["n04380533/n04380533_3495.JPEG","n04379243/n04379243_11806.JPEG","n04379243/n04379243_26551.JPEG","n04380533/n04380533_2321.JPEG","n03367059/n03367059_5438.JPEG"],"rt":15700},{"internal_node_id":"0.0-6.0","time_elapsed":63079,"trial_index":6,"trial_type":"generalization","sample_node":"n07740220","trial_type2":"1_ex","condition":"subordinate_condition","nonsense_word":"canney","train_images":["n07740220/n07740220_3543.JPEG"],"test_images":["n04451818/n04451818_7205.JPEG","n07740220/n07740220_6803.JPEG","n04451818/n04451818_1690.JPEG","n07744246/n07744246_10706.JPEG","n07740220/n07740220_8966.JPEG","n07758680/n07758680_717.JPEG","n03405725/n03405725_26560.JPEG","n03051540/n03051540_20092.JPEG","n04524313/n04524313_4287.JPEG","n01503061/n01503061_8538.JPEG","n13104059/n13104059_5641.JPEG","n07740954/n07740954_5900.JPEG","n01503061/n01503061_4709.JPEG","n04451818/n04451818_14760.JPEG","n03051540/n03051540_37187.JPEG","n01503061/n01503061_3741.JPEG","n01503061/n01503061_10777.JPEG","n01503061/n01503061_21606.JPEG","n04524313/n04524313_3332.JPEG","n01503061/n01503061_3083.JPEG","n07744246/n07744246_2036.JPEG","n07758680/n07758680_12189.JPEG","n01503061/n01503061_9211.JPEG","n07740954/n07740954_11593.JPEG"],"trial_ID":4,"responses":["n07740220/n07740220_6803.JPEG","n07740220/n07740220_8966.JPEG","n07740954/n07740954_5900.JPEG"],"rt":7005},{"internal_node_id":"0.0-7.0","time_elapsed":70611,"trial_index":7,"trial_type":"generalization","sample_node":"n03928116","trial_type2":"5_ex","condition":"basic-level_condition","nonsense_word":"abroll","train_images":["n03928116/n03928116_12855.JPEG","n03928116/n03928116_2927.JPEG","n03928116/n03928116_25254.JPEG","n04515003/n04515003_7547.JPEG","n03928116/n03928116_16511.JPEG"],"test_images":["n04524313/n04524313_5311.JPEG","n04524313/n04524313_1426.JPEG","n02512053/n02512053_599.JPEG","n03405725/n03405725_21776.JPEG","n03405725/n03405725_1030.JPEG","n03249569/n03249569_42142.JPEG","n04524313/n04524313_2068.JPEG","n13134947/n13134947_626.JPEG","n03452741/n03452741_2323.JPEG","n13134947/n13134947_4976.JPEG","n03467517/n03467517_9370.JPEG","n01503061/n01503061_8375.JPEG","n04451818/n04451818_15021.JPEG","n03249569/n03249569_22940.JPEG","n02512053/n02512053_337.JPEG","n04524313/n04524313_1386.JPEG","n03452741/n03452741_6938.JPEG","n13134947/n13134947_2766.JPEG","n04451818/n04451818_7635.JPEG","n04515003/n04515003_5893.JPEG","n04515003/n04515003_8547.JPEG","n03467517/n03467517_3511.JPEG","n04524313/n04524313_4678.JPEG","n04524313/n04524313_3993.JPEG"],"trial_ID":4,"responses":["n04515003/n04515003_5893.JPEG","n04515003/n04515003_8547.JPEG"],"rt":6524},{"internal_node_id":"0.0-8.0","time_elapsed":86626,"trial_index":8,"trial_type":"generalization","sample_node":"n02586543","trial_type2":"5_ex","condition":"basic-level_condition","nonsense_word":"pomple","train_images":["n02587300/n02587300_4625.JPEG","n02586543/n02586543_4685.JPEG","n02586543/n02586543_7315.JPEG","n02586543/n02586543_4022.JPEG","n02586543/n02586543_12571.JPEG"],"test_images":["n03405725/n03405725_4948.JPEG","n03405725/n03405725_34253.JPEG","n02587051/n02587051_564.JPEG","n03800933/n03800933_20793.JPEG","n04524313/n04524313_6527.JPEG","n03800933/n03800933_25044.JPEG","n03800933/n03800933_3355.JPEG","n02587051/n02587051_218.JPEG","n04451818/n04451818_10730.JPEG","n02534734/n02534734_11945.JPEG","n13134947/n13134947_4656.JPEG","n03405725/n03405725_5238.JPEG","n13104059/n13104059_11889.JPEG","n02587300/n02587300_882.JPEG","n02534734/n02534734_3262.JPEG","n13134947/n13134947_7685.JPEG","n03405725/n03405725_24656.JPEG","n02537085/n02537085_8829.JPEG","n02587300/n02587300_3598.JPEG","n03405725/n03405725_17808.JPEG","n03405725/n03405725_3661.JPEG","n03051540/n03051540_21791.JPEG","n02537085/n02537085_11405.JPEG","n03405725/n03405725_30004.JPEG"],"trial_ID":4,"responses":["n02587051/n02587051_218.JPEG","n02587300/n02587300_882.JPEG","n02534734/n02534734_3262.JPEG","n02587300/n02587300_3598.JPEG","n02537085/n02537085_11405.JPEG"],"rt":15004},{"internal_node_id":"0.0-9.0","time_elapsed":98308,"trial_index":9,"trial_type":"generalization","sample_node":"n03481172","trial_type2":"10_ex","condition":"basic-level_condition","nonsense_word":"coloost","train_images":["n02783035/n02783035_655.JPEG","n03481172/n03481172_71.JPEG","n03481172/n03481172_2960.JPEG","n03481172/n03481172_2838.JPEG","n03481172/n03481172_11093.JPEG","n03481172/n03481172_2175.JPEG","n03481172/n03481172_14843.JPEG","n03481172/n03481172_1898.JPEG","n03481172/n03481172_6091.JPEG","n03481172/n03481172_607.JPEG"],"test_images":["n13104059/n13104059_12265.JPEG","n02966545/n02966545_4494.JPEG","n04154565/n04154565_8905.JPEG","n03405725/n03405725_3182.JPEG","n04524313/n04524313_4614.JPEG","n03405725/n03405725_21187.JPEG","n01503061/n01503061_5942.JPEG","n01503061/n01503061_15186.JPEG","n13134947/n13134947_7767.JPEG","n02783035/n02783035_794.JPEG","n13104059/n13104059_4266.JPEG","n02966545/n02966545_3486.JPEG","n04140064/n04140064_4086.JPEG","n04140064/n04140064_10389.JPEG","n13104059/n13104059_6100.JPEG","n02512053/n02512053_10265.JPEG","n13104059/n13104059_8670.JPEG","n02512053/n02512053_716.JPEG","n04140064/n04140064_10789.JPEG","n13104059/n13104059_10872.JPEG","n03405725/n03405725_2828.JPEG","n02783035/n02783035_1127.JPEG","n04524313/n04524313_420.JPEG","n03405725/n03405725_21533.JPEG"],"trial_ID":4,"responses":["n02966545/n02966545_4494.JPEG","n02783035/n02783035_794.JPEG","n02966545/n02966545_3486.JPEG"],"rt":10662}],"__v":0}
{"_id":{"$oid":"591bc8b233631200049fb44f"},"data":[],"__v":0}
{"_id":{"$oid":"591bc8bb33631200049fb450"},"data":[{"internal_node_id":"0.0-2.0","time_elapsed":37883,"trial_index":2,"trial_type":"generalization","sample_node":"n03335030","trial_type2":"5_ex","condition":"subordinate_condition","nonsense_word":"claine","train_images":["n03335030/n03335030_28515.JPEG","n03335030/n03335030_19283.JPEG","n03335030/n03335030_47700.JPEG","n03335030/n03335030_8232.JPEG","n03335030/n03335030_29296.JPEG"],"test_images":["n03335030/n03335030_13866.JPEG","n02958343/n02958343_8974.JPEG","n03051540/n03051540_7502.JPEG","n02958343/n02958343_7286.JPEG","n13134947/n13134947_6674.JPEG","n03800933/n03800933_669.JPEG","n02512053/n02512053_4011.JPEG","n01503061/n01503061_10939.JPEG","n02958343/n02958343_2919.JPEG","n13134947/n13134947_11305.JPEG","n04451818/n04451818_3806.JPEG","n03800933/n03800933_11100.JPEG","n04451818/n04451818_21400.JPEG","n01503061/n01503061_5839.JPEG","n04451818/n04451818_9138.JPEG","n03335030/n03335030_14092.JPEG","n01503061/n01503061_10682.JPEG","n02958343/n02958343_4199.JPEG","n02512053/n02512053_5176.JPEG","n03800933/n03800933_9728.JPEG","n02690373/n02690373_4506.JPEG","n01503061/n01503061_8507.JPEG","n02690373/n02690373_6920.JPEG","n13134947/n13134947_4246.JPEG"],"trial_ID":8,"responses":["n03335030/n03335030_14092.JPEG","n02690373/n02690373_4506.JPEG","n02690373/n02690373_6920.JPEG"],"rt":12730},{"internal_node_id":"0.0-3.0","time_elapsed":54030,"trial_index":3,"trial_type":"generalization","sample_node":"n03622931","trial_type2":"10_ex","condition":"subordinate_condition","nonsense_word":"abroll","train_images":["n03622931/n03622931_893.JPEG","n03622931/n03622931_591.JPEG","n03622931/n03622931_3911.JPEG","n03622931/n03622931_3668.JPEG","n03622931/n03622931_4076.JPEG","n03622931/n03622931_3962.JPEG","n03622931/n03622931_11248.JPEG","n03622931/n03622931_6593.JPEG","n03622931/n03622931_6906.JPEG","n03622931/n03622931_14877.JPEG"],"test_images":["n02752496/n02752496_4461.JPEG","n03405725/n03405725_162.JPEG","n13104059/n13104059_10550.JPEG","n03405725/n03405725_1713.JPEG","n02512053/n02512053_12335.JPEG","n03622931/n03622931_7502.JPEG","n04197391/n04197391_1336.JPEG","n01503061/n01503061_6132.JPEG","n04451818/n04451818_3267.JPEG","n04197391/n04197391_2422.JPEG","n02752496/n02752496_3719.JPEG","n02512053/n02512053_5407.JPEG","n04451818/n04451818_23048.JPEG","n13134947/n13134947_5659.JPEG","n01503061/n01503061_9979.JPEG","n01503061/n01503061_3442.JPEG","n03622931/n03622931_4147.JPEG","n03800933/n03800933_4380.JPEG","n13104059/n13104059_8244.JPEG","n13134947/n13134947_12594.JPEG","n04197391/n04197391_9647.JPEG","n01503061/n01503061_3325.JPEG","n04197391/n04197391_139.JPEG","n04451818/n04451818_15565.JPEG"],"trial_ID":8,"responses":["n02752496/n02752496_4461.JPEG","n02752496/n02752496_3719.JPEG","n03622931/n03622931_4147.JPEG"],"rt":15138},{"internal_node_id":"0.0-4.0","time_elapsed":66148,"trial_index":4,"trial_type":"generalization","sample_node":"n01613294","trial_type2":"3_ex","condition":"basic-level_condition","nonsense_word":"aftion","train_images":["n01614343/n01614343_2545.JPEG","n01613294/n01613294_3538.JPEG","n01613294/n01613294_2990.JPEG"],"test_images":["n03051540/n03051540_20566.JPEG","n03051540/n03051540_24888.JPEG","n04451818/n04451818_14032.JPEG","n01539573/n01539573_548.JPEG","n01539573/n01539573_6019.JPEG","n01614925/n01614925_3264.JPEG","n03800933/n03800933_4470.JPEG","n01539573/n01539573_4984.JPEG","n01614343/n01614343_3470.JPEG","n04451818/n04451818_685.JPEG","n01614925/n01614925_11157.JPEG","n03051540/n03051540_19899.JPEG","n13134947/n13134947_5684.JPEG","n04524313/n04524313_333.JPEG","n13104059/n13104059_5313.JPEG","n04524313/n04524313_2921.JPEG","n01539573/n01539573_1792.JPEG","n02512053/n02512053_1208.JPEG","n01614343/n01614343_919.JPEG","n03051540/n03051540_51100.JPEG","n03800933/n03800933_4806.JPEG","n04451818/n04451818_747.JPEG","n13134947/n13134947_1832.JPEG","n03051540/n03051540_52966.JPEG"],"trial_ID":8,"responses":["n01539573/n01539573_548.JPEG","n01539573/n01539573_6019.JPEG","n01614925/n01614925_3264.JPEG","n01614343/n01614343_3470.JPEG","n01614925/n01614925_11157.JPEG","n01539573/n01539573_1792.JPEG","n01614343/n01614343_919.JPEG"],"rt":11105},{"internal_node_id":"0.0-5.0","time_elapsed":78076,"trial_index":5,"trial_type":"generalization","sample_node":"n03001627","trial_type2":"3_ex","condition":"basic-level_condition","nonsense_word":"stuyer","train_images":["n03001627/n03001627_16713.JPEG","n03001627/n03001627_5510.JPEG","n02738535/n02738535_9477.JPEG"],"test_images":["n03051540/n03051540_6467.JPEG","n01503061/n01503061_6791.JPEG","n03051540/n03051540_4256.JPEG","n04379243/n04379243_13159.JPEG","n04331277/n04331277_1625.JPEG","n03800933/n03800933_10337.JPEG","n01503061/n01503061_459.JPEG","n03800933/n03800933_2010.JPEG","n04524313/n04524313_1343.JPEG","n01503061/n01503061_1649.JPEG","n02738535/n02738535_11425.JPEG","n04379243/n04379243_21147.JPEG","n02738535/n02738535_2861.JPEG","n04524313/n04524313_5735.JPEG","n04331277/n04331277_7180.JPEG","n01503061/n01503061_15239.JPEG","n01503061/n01503061_7969.JPEG","n04379243/n04379243_13684.JPEG","n04379243/n04379243_15854.JPEG","n01503061/n01503061_611.JPEG","n02512053/n02512053_335.JPEG","n04524313/n04524313_379.JPEG","n03051540/n03051540_14235.JPEG","n03051540/n03051540_11557.JPEG"],"trial_ID":8,"responses":["n04331277/n04331277_1625.JPEG","n02738535/n02738535_11425.JPEG","n04331277/n04331277_7180.JPEG"],"rt":10907},{"internal_node_id":"0.0-6.0","time_elapsed":86207,"trial_index":6,"trial_type":"generalization","sample_node":"n07759194","trial_type2":"10_ex","condition":"subordinate_condition","nonsense_word":"coloost","train_images":["n07759194/n07759194_5401.JPEG","n07759194/n07759194_4775.JPEG","n07759194/n07759194_6579.JPEG","n07759194/n07759194_5622.JPEG","n07759194/n07759194_4438.JPEG","n07759194/n07759194_2576.JPEG","n07759194/n07759194_830.JPEG","n07759194/n07759194_6697.JPEG","n07759194/n07759194_1838.JPEG","n07759194/n07759194_4130.JPEG"],"test_images":["n07760755/n07760755_13.JPEG","n01503061/n01503061_3083.JPEG","n13104059/n13104059_5641.JPEG","n04524313/n04524313_3332.JPEG","n04451818/n04451818_7205.JPEG","n07744246/n07744246_3822.JPEG","n01503061/n01503061_21606.JPEG","n01503061/n01503061_10777.JPEG","n01503061/n01503061_9211.JPEG","n07759194/n07759194_7074.JPEG","n07739125/n07739125_3207.JPEG","n03051540/n03051540_37187.JPEG","n07744246/n07744246_1032.JPEG","n07759194/n07759194_5651.JPEG","n07760755/n07760755_1308.JPEG","n04451818/n04451818_14760.JPEG","n07744246/n07744246_10149.JPEG","n01503061/n01503061_4709.JPEG","n01503061/n01503061_8538.JPEG","n03051540/n03051540_20092.JPEG","n04451818/n04451818_1690.JPEG","n04524313/n04524313_4287.JPEG","n01503061/n01503061_3741.JPEG","n03405725/n03405725_26560.JPEG"],"trial_ID":8,"responses":["n07760755/n07760755_13.JPEG","n07744246/n07744246_3822.JPEG","n07744246/n07744246_1032.JPEG","n07759194/n07759194_5651.JPEG","n07744246/n07744246_10149.JPEG"],"rt":7124},{"internal_node_id":"0.0-7.0","time_elapsed":100368,"trial_index":7,"trial_type":"generalization","sample_node":"n03452741","trial_type2":"10_ex","condition":"subordinate_condition","nonsense_word":"pomple","train_images":["n03452741/n03452741_7100.JPEG","n03452741/n03452741_16092.JPEG","n03452741/n03452741_12357.JPEG","n03452741/n03452741_9285.JPEG","n03452741/n03452741_2366.JPEG","n03452741/n03452741_7005.JPEG","n03452741/n03452741_1110.JPEG","n03452741/n03452741_8311.JPEG","n03452741/n03452741_4077.JPEG","n03452741/n03452741_8079.JPEG"],"test_images":["n03467517/n03467517_9370.JPEG","n03249569/n03249569_42142.JPEG","n04524313/n04524313_1386.JPEG","n03452741/n03452741_5822.JPEG","n13134947/n13134947_2766.JPEG","n13134947/n13134947_626.JPEG","n04515003/n04515003_6500.JPEG","n02512053/n02512053_337.JPEG","n04451818/n04451818_15021.JPEG","n02512053/n02512053_599.JPEG","n04524313/n04524313_2068.JPEG","n13134947/n13134947_4976.JPEG","n04524313/n04524313_1426.JPEG","n04524313/n04524313_5311.JPEG","n03467517/n03467517_3511.JPEG","n04515003/n04515003_303.JPEG","n03405725/n03405725_1030.JPEG","n03452741/n03452741_2887.JPEG","n04524313/n04524313_4678.JPEG","n03405725/n03405725_21776.JPEG","n03249569/n03249569_22940.JPEG","n04524313/n04524313_3993.JPEG","n01503061/n01503061_8375.JPEG","n04451818/n04451818_7635.JPEG"],"trial_ID":8,"responses":["n04515003/n04515003_6500.JPEG","n03452741/n03452741_2887.JPEG"],"rt":13152},{"internal_node_id":"0.0-8.0","time_elapsed":110735,"trial_index":8,"trial_type":"generalization","sample_node":"n02512053","trial_type2":"3_ex","condition":"superordinate_condition","nonsense_word":"canney","train_images":["n02536456/n02536456_3821.JPEG","n02512053/n02512053_10217.JPEG","n02512053/n02512053_4026.JPEG"],"test_images":["n03800933/n03800933_3355.JPEG","n13104059/n13104059_11889.JPEG","n02535537/n02535537_2586.JPEG","n02586543/n02586543_9649.JPEG","n02536456/n02536456_11692.JPEG","n02535537/n02535537_2007.JPEG","n03051540/n03051540_21791.JPEG","n02586543/n02586543_2017.JPEG","n02536456/n02536456_5764.JPEG","n03405725/n03405725_5238.JPEG","n13134947/n13134947_4656.JPEG","n13134947/n13134947_7685.JPEG","n02586543/n02586543_14002.JPEG","n03800933/n03800933_25044.JPEG","n03405725/n03405725_34253.JPEG","n03800933/n03800933_20793.JPEG","n04524313/n04524313_6527.JPEG","n03405725/n03405725_30004.JPEG","n03405725/n03405725_24656.JPEG","n04451818/n04451818_10730.JPEG","n03405725/n03405725_17808.JPEG","n03405725/n03405725_3661.JPEG","n03405725/n03405725_4948.JPEG","n02537085/n02537085_10919.JPEG"],"trial_ID":8,"responses":["n02535537/n02535537_2586.JPEG","n02586543/n02586543_9649.JPEG","n02535537/n02535537_2007.JPEG","n02537085/n02537085_10919.JPEG"],"rt":9358},{"internal_node_id":"0.0-9.0","time_elapsed":119726,"trial_index":9,"trial_type":"generalization","sample_node":"n03361683","trial_type2":"1_ex","condition":"subordinate_condition","nonsense_word":"rephan","train_images":["n03361683/n03361683_129.JPEG"],"test_images":["n03923692/n03923692_2127.JPEG","n13104059/n13104059_10872.JPEG","n01503061/n01503061_15186.JPEG","n03361683/n03361683_1789.JPEG","n04524313/n04524313_4614.JPEG","n03405725/n03405725_21533.JPEG","n13104059/n13104059_8670.JPEG","n03361683/n03361683_1360.JPEG","n04140064/n04140064_44939.JPEG","n02512053/n02512053_10265.JPEG","n13104059/n13104059_6100.JPEG","n13134947/n13134947_7767.JPEG","n02512053/n02512053_716.JPEG","n13104059/n13104059_12265.JPEG","n03405725/n03405725_3182.JPEG","n03405725/n03405725_21187.JPEG","n03923692/n03923692_732.JPEG","n04140064/n04140064_8890.JPEG","n01503061/n01503061_5942.JPEG","n13104059/n13104059_4266.JPEG","n04524313/n04524313_420.JPEG","n03405725/n03405725_2828.JPEG","n04140064/n04140064_4102.JPEG","n03481172/n03481172_14984.JPEG"],"trial_ID":8,"responses":["n03405725/n03405725_21533.JPEG"],"rt":7984}],"__v":0}
{"_id":{"$oid":"591bc8ce33631200049fb451"},"data":[{"internal_node_id":"0.0-2.0","time_elapsed":26101,"trial_index":2,"trial_type":"generalization","sample_node":"n04467665","trial_type2":"10_ex","condition":"subordinate_condition","nonsense_word":"abroll","train_images":["n04467665/n04467665_26379.JPEG","n04467665/n04467665_345.JPEG","n04467665/n04467665_18818.JPEG","n04467665/n04467665_4401.JPEG","n04467665/n04467665_22358.JPEG","n04467665/n04467665_4093.JPEG","n04467665/n04467665_20527.JPEG","n04467665/n04467665_50806.JPEG","n04467665/n04467665_28446.JPEG","n04467665/n04467665_20185.JPEG"],"test_images":["n03930630/n03930630_19055.JPEG","n04467665/n04467665_5665.JPEG","n04451818/n04451818_3806.JPEG","n02958343/n02958343_11323.JPEG","n03930630/n03930630_2490.JPEG","n13134947/n13134947_6674.JPEG","n04451818/n04451818_9138.JPEG","n03800933/n03800933_669.JPEG","n01503061/n01503061_5839.JPEG","n02691156/n02691156_34778.JPEG","n01503061/n01503061_8507.JPEG","n02512053/n02512053_5176.JPEG","n01503061/n01503061_10939.JPEG","n02958343/n02958343_8229.JPEG","n02958343/n02958343_13642.JPEG","n03800933/n03800933_11100.JPEG","n04451818/n04451818_21400.JPEG","n02512053/n02512053_4011.JPEG","n13134947/n13134947_4246.JPEG","n04467665/n04467665_7338.JPEG","n03800933/n03800933_9728.JPEG","n03051540/n03051540_7502.JPEG","n13134947/n13134947_11305.JPEG","n01503061/n01503061_10682.JPEG"],"trial_ID":14,"responses":["n04467665/n04467665_5665.JPEG","n04467665/n04467665_7338.JPEG"],"rt":20450},{"internal_node_id":"0.0-3.0","time_elapsed":38505,"trial_index":3,"trial_type":"generalization","sample_node":"n03238879","trial_type2":"1_ex","condition":"subordinate_condition","nonsense_word":"rephan","train_images":["n03238879/n03238879_11919.JPEG"],"test_images":["n04451818/n04451818_15565.JPEG","n03800933/n03800933_4380.JPEG","n01503061/n01503061_9979.JPEG","n01503061/n01503061_3442.JPEG","n13134947/n13134947_12594.JPEG","n03978966/n03978966_6059.JPEG","n04254777/n04254777_5816.JPEG","n03238879/n03238879_5813.JPEG","n13134947/n13134947_5659.JPEG","n02512053/n02512053_12335.JPEG","n01503061/n01503061_3325.JPEG","n04254777/n04254777_20819.JPEG","n01503061/n01503061_6132.JPEG","n03238879/n03238879_239.JPEG","n03978966/n03978966_8103.JPEG","n03405725/n03405725_1713.JPEG","n02512053/n02512053_5407.JPEG","n13104059/n13104059_10550.JPEG","n13104059/n13104059_8244.JPEG","n04254777/n04254777_3245.JPEG","n04489008/n04489008_24215.JPEG","n03405725/n03405725_162.JPEG","n04451818/n04451818_3267.JPEG","n04451818/n04451818_23048.JPEG"],"trial_ID":14,"responses":["n03238879/n03238879_5813.JPEG","n03238879/n03238879_239.JPEG"],"rt":11193},{"internal_node_id":"0.0-4.0","time_elapsed":48870,"trial_index":4,"trial_type":"generalization","sample_node":"n01625562","trial_type2":"3_ex","condition":"subordinate_condition","nonsense_word":"pomple","train_images":["n01625562/n01625562_713.JPEG","n01625562/n01625562_3669.JPEG","n01625562/n01625562_994.JPEG"],"test_images":["n13134947/n13134947_1832.JPEG","n01613294/n01613294_3391.JPEG","n04451818/n04451818_747.JPEG","n03051540/n03051540_20566.JPEG","n04524313/n04524313_333.JPEG","n01625562/n01625562_7022.JPEG","n03800933/n03800933_4806.JPEG","n04451818/n04451818_685.JPEG","n13104059/n13104059_5313.JPEG","n01622779/n01622779_6249.JPEG","n03051540/n03051540_19899.JPEG","n03051540/n03051540_24888.JPEG","n01625562/n01625562_3144.JPEG","n01613294/n01613294_1697.JPEG","n01613294/n01613294_10295.JPEG","n01613294/n01613294_2168.JPEG","n03051540/n03051540_51100.JPEG","n03051540/n03051540_52966.JPEG","n02512053/n02512053_1208.JPEG","n13134947/n13134947_5684.JPEG","n01622779/n01622779_7348.JPEG","n04524313/n04524313_2921.JPEG","n04451818/n04451818_14032.JPEG","n03800933/n03800933_4470.JPEG"],"trial_ID":14,"responses":["n01625562/n01625562_7022.JPEG","n01622779/n01622779_7348.JPEG"],"rt":9193},{"internal_node_id":"0.0-5.0","time_elapsed":64237,"trial_index":5,"trial_type":"generalization","sample_node":"n03201035","trial_type2":"3_ex","condition":"subordinate_condition","nonsense_word":"claine","train_images":["n03201035/n03201035_5567.JPEG","n03201035/n03201035_5717.JPEG","n03201035/n03201035_1814.JPEG"],"test_images":["n03001627/n03001627_1773.JPEG","n01503061/n01503061_7969.JPEG","n04524313/n04524313_379.JPEG","n03201035/n03201035_3768.JPEG","n03051540/n03051540_6467.JPEG","n02512053/n02512053_335.JPEG","n03051540/n03051540_14235.JPEG","n04524313/n04524313_1343.JPEG","n03636248/n03636248_3806.JPEG","n03001627/n03001627_6880.JPEG","n01503061/n01503061_611.JPEG","n03051540/n03051540_11557.JPEG","n03620967/n03620967_1446.JPEG","n04524313/n04524313_5735.JPEG","n01503061/n01503061_6791.JPEG","n01503061/n01503061_15239.JPEG","n03001627/n03001627_3343.JPEG","n03800933/n03800933_10337.JPEG","n03800933/n03800933_2010.JPEG","n03620967/n03620967_1622.JPEG","n01503061/n01503061_1649.JPEG","n03051540/n03051540_4256.JPEG","n03201035/n03201035_3981.JPEG","n01503061/n01503061_459.JPEG"],"trial_ID":14,"responses":["n03201035/n03201035_3768.JPEG","n03620967/n03620967_1622.JPEG","n03201035/n03201035_3981.JPEG"],"rt":14189},{"internal_node_id":"0.0-6.0","time_elapsed":76007,"trial_index":6,"trial_type":"generalization","sample_node":"n07744682","trial_type2":"10_ex","condition":"subordinate_condition","nonsense_word":"aftion","train_images":["n07744682/n07744682_1037.JPEG","n07744682/n07744682_4467.JPEG","n07744682/n07744682_212.JPEG","n07744682/n07744682_5894.JPEG","n07744682/n07744682_3706.JPEG","n07744682/n07744682_1994.JPEG","n07744682/n07744682_357.JPEG","n07744682/n07744682_886.JPEG","n07744682/n07744682_2373.JPEG","n07744682/n07744682_6523.JPEG"],"test_images":["n07739125/n07739125_5852.JPEG","n01503061/n01503061_3741.JPEG","n03051540/n03051540_37187.JPEG","n04451818/n04451818_14760.JPEG","n07744559/n07744559_2604.JPEG","n01503061/n01503061_10777.JPEG","n07744682/n07744682_1796.JPEG","n03051540/n03051540_20092.JPEG","n04451818/n04451818_7205.JPEG","n13104059/n13104059_5641.JPEG","n04524313/n04524313_4287.JPEG","n04451818/n04451818_1690.JPEG","n01503061/n01503061_9211.JPEG","n01503061/n01503061_3083.JPEG","n03405725/n03405725_26560.JPEG","n01503061/n01503061_8538.JPEG","n07744559/n07744559_5184.JPEG","n04524313/n04524313_3332.JPEG","n01503061/n01503061_4709.JPEG","n07758680/n07758680_17712.JPEG","n07758680/n07758680_15982.JPEG","n07744682/n07744682_2617.JPEG","n07758680/n07758680_5587.JPEG","n01503061/n01503061_21606.JPEG"],"trial_ID":14,"responses":["n07744682/n07744682_1796.JPEG","n07758680/n07758680_17712.JPEG","n07758680/n07758680_15982.JPEG","n07744682/n07744682_2617.JPEG"],"rt":10575},{"internal_node_id":"0.0-7.0","time_elapsed":93267,"trial_index":7,"trial_type":"generalization","sample_node":"n03452741","trial_type2":"1_ex","condition":"subordinate_condition","nonsense_word":"canney","train_images":["n03452741/n03452741_12357.JPEG"],"test_images":["n04524313/n04524313_1386.JPEG","n04524313/n04524313_3993.JPEG","n03452741/n03452741_5822.JPEG","n03405725/n03405725_21776.JPEG","n03249569/n03249569_22940.JPEG","n04524313/n04524313_1426.JPEG","n03452741/n03452741_2887.JPEG","n13134947/n13134947_626.JPEG","n13134947/n13134947_2766.JPEG","n03249569/n03249569_42142.JPEG","n04451818/n04451818_7635.JPEG","n03467517/n03467517_9370.JPEG","n04515003/n04515003_6500.JPEG","n02512053/n02512053_599.JPEG","n01503061/n01503061_8375.JPEG","n03405725/n03405725_1030.JPEG","n04515003/n04515003_303.JPEG","n03467517/n03467517_3511.JPEG","n04451818/n04451818_15021.JPEG","n04524313/n04524313_5311.JPEG","n04524313/n04524313_2068.JPEG","n04524313/n04524313_4678.JPEG","n02512053/n02512053_337.JPEG","n13134947/n13134947_4976.JPEG"],"trial_ID":14,"responses":[],"rt":16078},{"internal_node_id":"0.0-8.0","time_elapsed":105398,"trial_index":8,"trial_type":"generalization","sample_node":"n02537525","trial_type2":"5_ex","condition":"subordinate_condition","nonsense_word":"stuyer","train_images":["n02537525/n02537525_297.JPEG","n02537525/n02537525_2072.JPEG","n02537525/n02537525_428.JPEG","n02537525/n02537525_4265.JPEG","n02537525/n02537525_1534.JPEG"],"test_images":["n04524313/n04524313_6527.JPEG","n02534734/n02534734_114.JPEG","n03405725/n03405725_5238.JPEG","n03800933/n03800933_20793.JPEG","n03800933/n03800933_3355.JPEG","n03405725/n03405725_3661.JPEG","n03405725/n03405725_4948.JPEG","n03405725/n03405725_17808.JPEG","n04451818/n04451818_10730.JPEG","n02534734/n02534734_8418.JPEG","n13134947/n13134947_7685.JPEG","n02534734/n02534734_5129.JPEG","n02537525/n02537525_1155.JPEG","n03800933/n03800933_25044.JPEG","n03051540/n03051540_21791.JPEG","n02586543/n02586543_1340.JPEG","n13104059/n13104059_11889.JPEG","n02537525/n02537525_629.JPEG","n02538010/n02538010_2253.JPEG","n03405725/n03405725_34253.JPEG","n03405725/n03405725_30004.JPEG","n03405725/n03405725_24656.JPEG","n02538010/n02538010_7663.JPEG","n13134947/n13134947_4656.JPEG"],"trial_ID":14,"responses":["n02534734/n02534734_114.JPEG","n02534734/n02534734_5129.JPEG","n02586543/n02586543_1340.JPEG","n02538010/n02538010_7663.JPEG"],"rt":10947},{"internal_node_id":"0.0-9.0","time_elapsed":114944,"trial_index":9,"trial_type":"generalization","sample_node":"n03923692","trial_type2":"10_ex","condition":"subordinate_condition","nonsense_word":"coloost","train_images":["n03923692/n03923692_162.JPEG","n03923692/n03923692_2628.JPEG","n03923692/n03923692_107.JPEG","n03923692/n03923692_746.JPEG","n03923692/n03923692_215.JPEG","n03923692/n03923692_1710.JPEG","n03923692/n03923692_1897.JPEG","n03923692/n03923692_900.JPEG","n03923692/n03923692_1596.JPEG","n03923692/n03923692_3718.JPEG"],"test_images":["n04140064/n04140064_8890.JPEG","n13104059/n13104059_10872.JPEG","n13104059/n13104059_8670.JPEG","n03405725/n03405725_2828.JPEG","n02512053/n02512053_716.JPEG","n04524313/n04524313_420.JPEG","n04140064/n04140064_44939.JPEG","n13104059/n13104059_4266.JPEG","n03481172/n03481172_14984.JPEG","n03405725/n03405725_3182.JPEG","n03405725/n03405725_21533.JPEG","n13104059/n13104059_6100.JPEG","n13134947/n13134947_7767.JPEG","n03361683/n03361683_1389.JPEG","n04524313/n04524313_4614.JPEG","n03923692/n03923692_1663.JPEG","n01503061/n01503061_5942.JPEG","n03405725/n03405725_21187.JPEG","n03923692/n03923692_2512.JPEG","n13104059/n13104059_12265.JPEG","n04140064/n04140064_4102.JPEG","n03361683/n03361683_1712.JPEG","n01503061/n01503061_15186.JPEG","n02512053/n02512053_10265.JPEG"],"trial_ID":14,"responses":["n03361683/n03361683_1389.JPEG","n03923692/n03923692_1663.JPEG","n03923692/n03923692_2512.JPEG"],"rt":8331}],"__v":0}
{"_id":{"$oid":"591bc8e833631200049fb452"},"data":[{"internal_node_id":"0.0-2.0","time_elapsed":43748,"trial_index":2,"trial_type":"generalization","sample_node":"n02958343","trial_type2":"3_ex","condition":"basic-level_condition","nonsense_word":"pomple","train_images":["n04166281/n04166281_19910.JPEG","n02958343/n02958343_13788.JPEG","n02958343/n02958343_10183.JPEG"],"test_images":["n03051540/n03051540_7502.JPEG","n04451818/n04451818_9138.JPEG","n13134947/n13134947_4246.JPEG","n04451818/n04451818_21400.JPEG","n02691156/n02691156_43470.JPEG","n01503061/n01503061_5839.JPEG","n03800933/n03800933_9728.JPEG","n04490091/n04490091_269.JPEG","n13134947/n13134947_6674.JPEG","n03800933/n03800933_11100.JPEG","n04166281/n04166281_4867.JPEG","n02512053/n02512053_5176.JPEG","n02512053/n02512053_4011.JPEG","n04285008/n04285008_16035.JPEG","n04285008/n04285008_2272.JPEG","n01503061/n01503061_10939.JPEG","n04166281/n04166281_13942.JPEG","n02691156/n02691156_9641.JPEG","n01503061/n01503061_10682.JPEG","n13134947/n13134947_11305.JPEG","n04490091/n04490091_12735.JPEG","n03800933/n03800933_669.JPEG","n01503061/n01503061_8507.JPEG","n04451818/n04451818_3806.JPEG"],"trial_ID":5,"responses":["n04166281/n04166281_4867.JPEG","n04285008/n04285008_16035.JPEG","n04285008/n04285008_2272.JPEG","n04166281/n04166281_13942.JPEG","n04490091/n04490091_12735.JPEG","n03800933/n03800933_669.JPEG"],"rt":35878},{"internal_node_id":"0.0-3.0","time_elapsed":67212,"trial_index":3,"trial_type":"generalization","sample_node":"n04370288","trial_type2":"5_ex","condition":"subordinate_condition","nonsense_word":"rephan","train_images":["n04370288/n04370288_4740.JPEG","n04370288/n04370288_9623.JPEG","n04370288/n04370288_4552.JPEG","n04370288/n04370288_12347.JPEG","n04370288/n04370288_10482.JPEG"],"test_images":["n01503061/n01503061_6132.JPEG","n02512053/n02512053_5407.JPEG","n04370288/n04370288_8957.JPEG","n03405725/n03405725_1713.JPEG","n04254777/n04254777_1831.JPEG","n03405725/n03405725_162.JPEG","n04451818/n04451818_15565.JPEG","n04451818/n04451818_3267.JPEG","n04197391/n04197391_1529.JPEG","n02512053/n02512053_12335.JPEG","n01503061/n01503061_9979.JPEG","n03594734/n03594734_26184.JPEG","n03800933/n03800933_4380.JPEG","n04451818/n04451818_23048.JPEG","n01503061/n01503061_3325.JPEG","n04254777/n04254777_8506.JPEG","n13104059/n13104059_8244.JPEG","n13134947/n13134947_5659.JPEG","n01503061/n01503061_3442.JPEG","n04370288/n04370288_8927.JPEG","n03594734/n03594734_41110.JPEG","n13104059/n13104059_10550.JPEG","n04254777/n04254777_11471.JPEG","n13134947/n13134947_12594.JPEG"],"trial_ID":5,"responses":["n04370288/n04370288_8957.JPEG","n03594734/n03594734_26184.JPEG","n04370288/n04370288_8927.JPEG","n03594734/n03594734_41110.JPEG"],"rt":22442},{"internal_node_id":"0.0-4.0","time_elapsed":87439,"trial_index":4,"trial_type":"generalization","sample_node":"n01625562","trial_type2":"5_ex","condition":"subordinate_condition","nonsense_word":"canney","train_images":["n01625562/n01625562_994.JPEG","n01625562/n01625562_3669.JPEG","n01625562/n01625562_9660.JPEG","n01625562/n01625562_1938.JPEG","n01625562/n01625562_713.JPEG"],"test_images":["n01613294/n01613294_10295.JPEG","n01625562/n01625562_3144.JPEG","n02512053/n02512053_1208.JPEG","n01622779/n01622779_7348.JPEG","n01625562/n01625562_7022.JPEG","n04451818/n04451818_14032.JPEG","n13134947/n13134947_1832.JPEG","n13104059/n13104059_5313.JPEG","n03051540/n03051540_51100.JPEG","n04451818/n04451818_685.JPEG","n03051540/n03051540_20566.JPEG","n03051540/n03051540_24888.JPEG","n04524313/n04524313_2921.JPEG","n01622779/n01622779_6249.JPEG","n03800933/n03800933_4470.JPEG","n04451818/n04451818_747.JPEG","n01613294/n01613294_2168.JPEG","n13134947/n13134947_5684.JPEG","n01613294/n01613294_3391.JPEG","n01613294/n01613294_1697.JPEG","n03800933/n03800933_4806.JPEG","n03051540/n03051540_52966.JPEG","n03051540/n03051540_19899.JPEG","n04524313/n04524313_333.JPEG"],"trial_ID":5,"responses":["n01625562/n01625562_7022.JPEG","n01622779/n01622779_6249.JPEG"],"rt":19201},{"internal_node_id":"0.0-5.0","time_elapsed":111266,"trial_index":5,"trial_type":"generalization","sample_node":"n03636248","trial_type2":"5_ex","condition":"basic-level_condition","nonsense_word":"abroll","train_images":["n04380533/n04380533_4918.JPEG","n03636248/n03636248_7868.JPEG","n03636248/n03636248_5662.JPEG","n03636248/n03636248_6751.JPEG","n03636248/n03636248_4222.JPEG"],"test_images":["n01503061/n01503061_6791.JPEG","n01503061/n01503061_15239.JPEG","n03051540/n03051540_11557.JPEG","n04380533/n04380533_1849.JPEG","n03367059/n03367059_1339.JPEG","n04379243/n04379243_11806.JPEG","n03051540/n03051540_4256.JPEG","n01503061/n01503061_1649.JPEG","n03800933/n03800933_10337.JPEG","n01503061/n01503061_7969.JPEG","n04524313/n04524313_5735.JPEG","n03367059/n03367059_4201.JPEG","n03001627/n03001627_16418.JPEG","n04380533/n04380533_2845.JPEG","n03051540/n03051540_14235.JPEG","n02512053/n02512053_335.JPEG","n04524313/n04524313_1343.JPEG","n03800933/n03800933_2010.JPEG","n01503061/n01503061_459.JPEG","n04524313/n04524313_379.JPEG","n03051540/n03051540_6467.JPEG","n04379243/n04379243_15108.JPEG","n04379243/n04379243_26551.JPEG","n01503061/n01503061_611.JPEG"],"trial_ID":5,"responses":["n03367059/n03367059_1339.JPEG"],"rt":22789},{"internal_node_id":"0.0-6.0","time_elapsed":126301,"trial_index":6,"trial_type":"generalization","sample_node":"n07740954","trial_type2":"10_ex","condition":"subordinate_condition","nonsense_word":"aftion","train_images":["n07740954/n07740954_5719.JPEG","n07740954/n07740954_13662.JPEG","n07740954/n07740954_9097.JPEG","n07740954/n07740954_1598.JPEG","n07740954/n07740954_12371.JPEG","n07740954/n07740954_524.JPEG","n07740954/n07740954_6193.JPEG","n07740954/n07740954_8692.JPEG","n07740954/n07740954_8473.JPEG","n07740954/n07740954_19029.JPEG"],"test_images":["n07740954/n07740954_17324.JPEG","n03051540/n03051540_20092.JPEG","n07758680/n07758680_717.JPEG","n01503061/n01503061_8538.JPEG","n13104059/n13104059_5641.JPEG","n04524313/n04524313_4287.JPEG","n04451818/n04451818_14760.JPEG","n07758680/n07758680_12189.JPEG","n04524313/n04524313_3332.JPEG","n03405725/n03405725_26560.JPEG","n01503061/n01503061_10777.JPEG","n01503061/n01503061_21606.JPEG","n01503061/n01503061_3083.JPEG","n07744246/n07744246_10706.JPEG","n07744246/n07744246_2036.JPEG","n04451818/n04451818_7205.JPEG","n07740220/n07740220_7564.JPEG","n04451818/n04451818_1690.JPEG","n01503061/n01503061_9211.JPEG","n07740220/n07740220_12391.JPEG","n01503061/n01503061_3741.JPEG","n07740954/n07740954_11853.JPEG","n03051540/n03051540_37187.JPEG","n01503061/n01503061_4709.JPEG"],"trial_ID":5,"responses":["n07740954/n07740954_17324.JPEG","n07740220/n07740220_7564.JPEG","n07740220/n07740220_12391.JPEG","n07740954/n07740954_11853.JPEG"],"rt":13984},{"internal_node_id":"0.0-7.0","time_elapsed":142527,"trial_index":7,"trial_type":"generalization","sample_node":"n04387400","trial_type2":"10_ex","condition":"subordinate_condition","nonsense_word":"coloost","train_images":["n04387400/n04387400_2052.JPEG","n04387400/n04387400_7155.JPEG","n04387400/n04387400_9553.JPEG","n04387400/n04387400_7652.JPEG","n04387400/n04387400_7567.JPEG","n04387400/n04387400_7367.JPEG","n04387400/n04387400_306.JPEG","n04387400/n04387400_922.JPEG","n04387400/n04387400_5991.JPEG","n04387400/n04387400_12413.JPEG"],"test_images":["n04451818/n04451818_15021.JPEG","n13134947/n13134947_626.JPEG","n02803666/n02803666_14180.JPEG","n02803666/n02803666_11477.JPEG","n03467517/n03467517_19194.JPEG","n13134947/n13134947_4976.JPEG","n03467517/n03467517_4005.JPEG","n04524313/n04524313_3993.JPEG","n03928116/n03928116_7242.JPEG","n04524313/n04524313_2068.JPEG","n04524313/n04524313_4678.JPEG","n04524313/n04524313_1386.JPEG","n01503061/n01503061_8375.JPEG","n04524313/n04524313_1426.JPEG","n04387400/n04387400_9835.JPEG","n13134947/n13134947_2766.JPEG","n02512053/n02512053_337.JPEG","n02512053/n02512053_599.JPEG","n03928116/n03928116_9171.JPEG","n04524313/n04524313_5311.JPEG","n03405725/n03405725_21776.JPEG","n04451818/n04451818_7635.JPEG","n03405725/n03405725_1030.JPEG","n04387400/n04387400_3291.JPEG"],"trial_ID":5,"responses":["n04387400/n04387400_9835.JPEG","n04387400/n04387400_3291.JPEG"],"rt":15199},{"internal_node_id":"0.0-8.0","time_elapsed":163779,"trial_index":8,"trial_type":"generalization","sample_node":"n02535537","trial_type2":"3_ex","condition":"subordinate_condition","nonsense_word":"claine","train_images":["n02535537/n02535537_17592.JPEG","n02535537/n02535537_16549.JPEG","n02535537/n02535537_11173.JPEG"],"test_images":["n03800933/n03800933_20793.JPEG","n03800933/n03800933_3355.JPEG","n04524313/n04524313_6527.JPEG","n02586543/n02586543_14002.JPEG","n03800933/n03800933_25044.JPEG","n13134947/n13134947_4656.JPEG","n03405725/n03405725_30004.JPEG","n02536456/n02536456_3105.JPEG","n03405725/n03405725_34253.JPEG","n02537085/n02537085_10919.JPEG","n03051540/n03051540_21791.JPEG","n13104059/n13104059_11889.JPEG","n03405725/n03405725_17808.JPEG","n13134947/n13134947_7685.JPEG","n03405725/n03405725_5238.JPEG","n02586543/n02586543_9649.JPEG","n02535537/n02535537_15273.JPEG","n03405725/n03405725_24656.JPEG","n02535537/n02535537_13337.JPEG","n04451818/n04451818_10730.JPEG","n02536456/n02536456_4670.JPEG","n03405725/n03405725_4948.JPEG","n03405725/n03405725_3661.JPEG","n02586543/n02586543_2017.JPEG"],"trial_ID":5,"responses":["n02586543/n02586543_14002.JPEG","n02536456/n02536456_3105.JPEG","n02537085/n02537085_10919.JPEG","n02586543/n02586543_9649.JPEG","n02535537/n02535537_15273.JPEG","n02535537/n02535537_13337.JPEG","n02536456/n02536456_4670.JPEG","n02586543/n02586543_2017.JPEG"],"rt":20238},{"internal_node_id":"0.0-9.0","time_elapsed":172050,"trial_index":9,"trial_type":"generalization","sample_node":"n02966545","trial_type2":"10_ex","condition":"subordinate_condition","nonsense_word":"stuyer","train_images":["n02966545/n02966545_7676.JPEG","n02966545/n02966545_2740.JPEG","n02966545/n02966545_10719.JPEG","n02966545/n02966545_2915.JPEG","n02966545/n02966545_4851.JPEG","n02966545/n02966545_5081.JPEG","n02966545/n02966545_4217.JPEG","n02966545/n02966545_4749.JPEG","n02966545/n02966545_504.JPEG","n02966545/n02966545_5149.JPEG"],"test_images":["n02783035/n02783035_1164.JPEG","n13104059/n13104059_4266.JPEG","n02512053/n02512053_716.JPEG","n03405725/n03405725_21533.JPEG","n13104059/n13104059_6100.JPEG","n13134947/n13134947_7767.JPEG","n01503061/n01503061_5942.JPEG","n04140064/n04140064_10789.JPEG","n03405725/n03405725_21187.JPEG","n02783035/n02783035_39.JPEG","n04140064/n04140064_10389.JPEG","n01503061/n01503061_15186.JPEG","n04524313/n04524313_4614.JPEG","n02512053/n02512053_10265.JPEG","n03405725/n03405725_2828.JPEG","n03405725/n03405725_3182.JPEG","n02966545/n02966545_4638.JPEG","n02966545/n02966545_6948.JPEG","n13104059/n13104059_10872.JPEG","n04140064/n04140064_4086.JPEG","n04154565/n04154565_8905.JPEG","n13104059/n13104059_12265.JPEG","n04524313/n04524313_420.JPEG","n13104059/n13104059_8670.JPEG"],"trial_ID":5,"responses":["n02783035/n02783035_1164.JPEG","n02783035/n02783035_39.JPEG","n02966545/n02966545_4638.JPEG","n02966545/n02966545_6948.JPEG"],"rt":7223}],"__v":0}
{"_id":{"$oid":"591bc8ea33631200049fb453"},"data":[{"internal_node_id":"0.0-2.0","time_elapsed":29966,"trial_index":2,"trial_type":"generalization","sample_node":"n02690373","trial_type2":"10_ex","condition":"subordinate_condition","nonsense_word":"rephan","train_images":["n02690373/n02690373_3179.JPEG","n02690373/n02690373_7229.JPEG","n02690373/n02690373_9247.JPEG","n02690373/n02690373_1441.JPEG","n02690373/n02690373_2643.JPEG","n02690373/n02690373_2489.JPEG","n02690373/n02690373_5948.JPEG","n02690373/n02690373_5556.JPEG","n02690373/n02690373_1178.JPEG","n02690373/n02690373_3139.JPEG"],"test_images":["n03800933/n03800933_11100.JPEG","n13134947/n13134947_11305.JPEG","n02690373/n02690373_4583.JPEG","n03335030/n03335030_47651.JPEG","n01503061/n01503061_8507.JPEG","n02958343/n02958343_2919.JPEG","n04451818/n04451818_9138.JPEG","n13134947/n13134947_4246.JPEG","n13134947/n13134947_6674.JPEG","n02512053/n02512053_5176.JPEG","n02690373/n02690373_734.JPEG","n01503061/n01503061_10939.JPEG","n03800933/n03800933_669.JPEG","n03051540/n03051540_7502.JPEG","n03800933/n03800933_9728.JPEG","n04451818/n04451818_3806.JPEG","n04451818/n04451818_21400.JPEG","n01503061/n01503061_10682.JPEG","n03335030/n03335030_8993.JPEG","n02958343/n02958343_8974.JPEG","n02958343/n02958343_7286.JPEG","n02512053/n02512053_4011.JPEG","n01503061/n01503061_5839.JPEG","n02958343/n02958343_4199.JPEG"],"trial_ID":17,"responses":["n03335030/n03335030_47651.JPEG","n02690373/n02690373_734.JPEG","n03335030/n03335030_8993.JPEG"],"rt":19641},{"internal_node_id":"0.0-3.0","time_elapsed":44125,"trial_index":3,"trial_type":"generalization","sample_node":"n03978966","trial_type2":"3_ex","condition":"subordinate_condition","nonsense_word":"coloost","train_images":["n03978966/n03978966_6286.JPEG","n03978966/n03978966_7556.JPEG","n03978966/n03978966_10574.JPEG"],"test_images":["n04451818/n04451818_3267.JPEG","n04254777/n04254777_3245.JPEG","n01503061/n01503061_9979.JPEG","n03978966/n03978966_8793.JPEG","n04254777/n04254777_5816.JPEG","n03978966/n03978966_9552.JPEG","n03238879/n03238879_1420.JPEG","n01503061/n01503061_3442.JPEG","n03800933/n03800933_4380.JPEG","n13104059/n13104059_10550.JPEG","n02512053/n02512053_5407.JPEG","n04451818/n04451818_15565.JPEG","n04489008/n04489008_24215.JPEG","n03405725/n03405725_162.JPEG","n03238879/n03238879_4289.JPEG","n04451818/n04451818_23048.JPEG","n02512053/n02512053_12335.JPEG","n04254777/n04254777_20819.JPEG","n13134947/n13134947_5659.JPEG","n01503061/n01503061_3325.JPEG","n13134947/n13134947_12594.JPEG","n13104059/n13104059_8244.JPEG","n01503061/n01503061_6132.JPEG","n03405725/n03405725_1713.JPEG"],"trial_ID":17,"responses":["n03978966/n03978966_9552.JPEG","n03238879/n03238879_1420.JPEG","n03238879/n03238879_4289.JPEG"],"rt":13088},{"internal_node_id":"0.0-4.0","time_elapsed":60323,"trial_index":4,"trial_type":"generalization","sample_node":"n01503061","trial_type2":"3_ex","condition":"superordinate_condition","nonsense_word":"canney","train_images":["n01622779/n01622779_2975.JPEG","n01503061/n01503061_15128.JPEG","n01503061/n01503061_766.JPEG"],"test_images":["n02512053/n02512053_1208.JPEG","n01622779/n01622779_308.JPEG","n04451818/n04451818_14032.JPEG","n04524313/n04524313_2921.JPEG","n03800933/n03800933_4806.JPEG","n03051540/n03051540_51100.JPEG","n13104059/n13104059_5313.JPEG","n01622779/n01622779_2013.JPEG","n03051540/n03051540_52966.JPEG","n03051540/n03051540_19899.JPEG","n01625562/n01625562_1108.JPEG","n04451818/n04451818_685.JPEG","n01613294/n01613294_2168.JPEG","n01613294/n01613294_10295.JPEG","n03051540/n03051540_20566.JPEG","n04524313/n04524313_333.JPEG","n01625562/n01625562_2472.JPEG","n01613294/n01613294_1697.JPEG","n13134947/n13134947_5684.JPEG","n01613294/n01613294_3391.JPEG","n03800933/n03800933_4470.JPEG","n03051540/n03051540_24888.JPEG","n04451818/n04451818_747.JPEG","n13134947/n13134947_1832.JPEG"],"trial_ID":17,"responses":["n01622779/n01622779_308.JPEG","n01622779/n01622779_2013.JPEG","n01625562/n01625562_2472.JPEG"],"rt":15118},{"internal_node_id":"0.0-5.0","time_elapsed":75318,"trial_index":5,"trial_type":"generalization","sample_node":"n04331277","trial_type2":"5_ex","condition":"subordinate_condition","nonsense_word":"abroll","train_images":["n04331277/n04331277_1677.JPEG","n04331277/n04331277_8673.JPEG","n04331277/n04331277_7209.JPEG","n04331277/n04331277_3432.JPEG","n04331277/n04331277_7113.JPEG"],"test_images":["n03051540/n03051540_14235.JPEG","n04379243/n04379243_13684.JPEG","n04379243/n04379243_21147.JPEG","n04379243/n04379243_13159.JPEG","n04524313/n04524313_5735.JPEG","n01503061/n01503061_459.JPEG","n04379243/n04379243_15854.JPEG","n01503061/n01503061_611.JPEG","n01503061/n01503061_7969.JPEG","n04524313/n04524313_1343.JPEG","n04331277/n04331277_9090.JPEG","n04331277/n04331277_173.JPEG","n02738535/n02738535_20135.JPEG","n01503061/n01503061_6791.JPEG","n03800933/n03800933_10337.JPEG","n04524313/n04524313_379.JPEG","n03800933/n03800933_2010.JPEG","n03051540/n03051540_4256.JPEG","n03051540/n03051540_6467.JPEG","n02512053/n02512053_335.JPEG","n02738535/n02738535_10416.JPEG","n01503061/n01503061_1649.JPEG","n01503061/n01503061_15239.JPEG","n03051540/n03051540_11557.JPEG"],"trial_ID":17,"responses":["n04331277/n04331277_9090.JPEG","n04331277/n04331277_173.JPEG","n02738535/n02738535_10416.JPEG"],"rt":13925},{"internal_node_id":"0.0-6.0","time_elapsed":84747,"trial_index":6,"trial_type":"generalization","sample_node":"n07758680","trial_type2":"3_ex","condition":"basic-level_condition","nonsense_word":"pomple","train_images":["n07758680/n07758680_15703.JPEG","n07760755/n07760755_1064.JPEG","n07758680/n07758680_17712.JPEG"],"test_images":["n07759194/n07759194_6933.JPEG","n04451818/n04451818_1690.JPEG","n04524313/n04524313_3332.JPEG","n03051540/n03051540_37187.JPEG","n01503061/n01503061_8538.JPEG","n07744246/n07744246_3822.JPEG","n13104059/n13104059_5641.JPEG","n07744246/n07744246_1032.JPEG","n01503061/n01503061_10777.JPEG","n01503061/n01503061_3083.JPEG","n03405725/n03405725_26560.JPEG","n04524313/n04524313_4287.JPEG","n01503061/n01503061_21606.JPEG","n07739125/n07739125_3207.JPEG","n07760755/n07760755_353.JPEG","n03051540/n03051540_20092.JPEG","n07759194/n07759194_6777.JPEG","n01503061/n01503061_9211.JPEG","n01503061/n01503061_4709.JPEG","n07744246/n07744246_10149.JPEG","n01503061/n01503061_3741.JPEG","n07760755/n07760755_1596.JPEG","n04451818/n04451818_7205.JPEG","n04451818/n04451818_14760.JPEG"],"trial_ID":17,"responses":["n07744246/n07744246_3822.JPEG","n07760755/n07760755_353.JPEG","n07744246/n07744246_10149.JPEG","n07760755/n07760755_1596.JPEG"],"rt":8356},{"internal_node_id":"0.0-7.0","time_elapsed":91814,"trial_index":7,"trial_type":"generalization","sample_node":"n04387400","trial_type2":"1_ex","condition":"subordinate_condition","nonsense_word":"stuyer","train_images":["n04387400/n04387400_7367.JPEG"],"test_images":["n02512053/n02512053_599.JPEG","n03467517/n03467517_19194.JPEG","n04524313/n04524313_5311.JPEG","n02803666/n02803666_14180.JPEG","n03928116/n03928116_7242.JPEG","n04524313/n04524313_4678.JPEG","n04387400/n04387400_3291.JPEG","n01503061/n01503061_8375.JPEG","n04451818/n04451818_7635.JPEG","n04451818/n04451818_15021.JPEG","n02803666/n02803666_11477.JPEG","n13134947/n13134947_4976.JPEG","n13134947/n13134947_626.JPEG","n04387400/n04387400_9835.JPEG","n03467517/n03467517_4005.JPEG","n04524313/n04524313_1426.JPEG","n03928116/n03928116_9171.JPEG","n03405725/n03405725_1030.JPEG","n04524313/n04524313_2068.JPEG","n02512053/n02512053_337.JPEG","n13134947/n13134947_2766.JPEG","n04524313/n04524313_3993.JPEG","n03405725/n03405725_21776.JPEG","n04524313/n04524313_1386.JPEG"],"trial_ID":17,"responses":["n04387400/n04387400_3291.JPEG"],"rt":5999},{"internal_node_id":"0.0-8.0","time_elapsed":105465,"trial_index":8,"trial_type":"generalization","sample_node":"n02535537","trial_type2":"5_ex","condition":"subordinate_condition","nonsense_word":"claine","train_images":["n02535537/n02535537_9470.JPEG","n02535537/n02535537_17592.JPEG","n02535537/n02535537_11173.JPEG","n02535537/n02535537_16549.JPEG","n02535537/n02535537_4523.JPEG"],"test_images":["n02536456/n02536456_4670.JPEG","n03405725/n03405725_5238.JPEG","n04524313/n04524313_6527.JPEG","n02586543/n02586543_9649.JPEG","n13134947/n13134947_7685.JPEG","n03405725/n03405725_3661.JPEG","n13134947/n13134947_4656.JPEG","n02536456/n02536456_3105.JPEG","n04451818/n04451818_10730.JPEG","n03800933/n03800933_3355.JPEG","n02586543/n02586543_14002.JPEG","n02586543/n02586543_2017.JPEG","n03405725/n03405725_30004.JPEG","n13104059/n13104059_11889.JPEG","n03800933/n03800933_20793.JPEG","n02537085/n02537085_10919.JPEG","n03405725/n03405725_34253.JPEG","n02535537/n02535537_15273.JPEG","n03405725/n03405725_17808.JPEG","n02535537/n02535537_13337.JPEG","n03405725/n03405725_4948.JPEG","n03405725/n03405725_24656.JPEG","n03800933/n03800933_25044.JPEG","n03051540/n03051540_21791.JPEG"],"trial_ID":17,"responses":["n02586543/n02586543_9649.JPEG","n02586543/n02586543_2017.JPEG","n02537085/n02537085_10919.JPEG","n02535537/n02535537_15273.JPEG","n02535537/n02535537_13337.JPEG"],"rt":12564},{"internal_node_id":"0.0-9.0","time_elapsed":116414,"trial_index":9,"trial_type":"generalization","sample_node":"n03361683","trial_type2":"5_ex","condition":"subordinate_condition","nonsense_word":"aftion","train_images":["n03361683/n03361683_1588.JPEG","n03361683/n03361683_129.JPEG","n03361683/n03361683_1792.JPEG","n03361683/n03361683_1432.JPEG","n03361683/n03361683_936.JPEG"],"test_images":["n03481172/n03481172_14984.JPEG","n03923692/n03923692_2127.JPEG","n02512053/n02512053_10265.JPEG","n01503061/n01503061_15186.JPEG","n03405725/n03405725_3182.JPEG","n13134947/n13134947_7767.JPEG","n03405725/n03405725_21187.JPEG","n01503061/n01503061_5942.JPEG","n03361683/n03361683_1789.JPEG","n04140064/n04140064_4102.JPEG","n03923692/n03923692_732.JPEG","n13104059/n13104059_12265.JPEG","n13104059/n13104059_8670.JPEG","n13104059/n13104059_4266.JPEG","n13104059/n13104059_6100.JPEG","n04524313/n04524313_420.JPEG","n03361683/n03361683_1360.JPEG","n13104059/n13104059_10872.JPEG","n04524313/n04524313_4614.JPEG","n04140064/n04140064_8890.JPEG","n03405725/n03405725_21533.JPEG","n02512053/n02512053_716.JPEG","n03405725/n03405725_2828.JPEG","n04140064/n04140064_44939.JPEG"],"trial_ID":17,"responses":["n03481172/n03481172_14984.JPEG","n03923692/n03923692_2127.JPEG","n03923692/n03923692_732.JPEG","n03361683/n03361683_1360.JPEG","n04140064/n04140064_8890.JPEG"],"rt":9873}],"__v":0}
{"_id":{"$oid":"591bc8ed33631200049fb454"},"data":[{"internal_node_id":"0.0-2.0","time_elapsed":26355,"trial_index":2,"trial_type":"generalization","sample_node":"n02691156","trial_type2":"10_ex","condition":"basic-level_condition","nonsense_word":"stuyer","train_images":["n02691156/n02691156_12394.JPEG","n02691156/n02691156_3472.JPEG","n02691156/n02691156_1793.JPEG","n02691156/n02691156_11028.JPEG","n02691156/n02691156_9873.JPEG","n02691156/n02691156_34778.JPEG","n02691156/n02691156_40795.JPEG","n02690373/n02690373_1178.JPEG","n02691156/n02691156_38856.JPEG","n02691156/n02691156_697.JPEG"],"test_images":["n02958343/n02958343_7286.JPEG","n04451818/n04451818_21400.JPEG","n01503061/n01503061_10682.JPEG","n04451818/n04451818_9138.JPEG","n02958343/n02958343_4199.JPEG","n03051540/n03051540_7502.JPEG","n02958343/n02958343_8974.JPEG","n01503061/n01503061_8507.JPEG","n13134947/n13134947_11305.JPEG","n01503061/n01503061_5839.JPEG","n02512053/n02512053_5176.JPEG","n02690373/n02690373_734.JPEG","n02690373/n02690373_4583.JPEG","n02958343/n02958343_2919.JPEG","n02512053/n02512053_4011.JPEG","n03335030/n03335030_8993.JPEG","n04451818/n04451818_3806.JPEG","n01503061/n01503061_10939.JPEG","n03800933/n03800933_669.JPEG","n13134947/n13134947_6674.JPEG","n13134947/n13134947_4246.JPEG","n03800933/n03800933_9728.JPEG","n03800933/n03800933_11100.JPEG","n03335030/n03335030_47651.JPEG"],"trial_ID":26,"responses":["n02690373/n02690373_734.JPEG"],"rt":13475},{"internal_node_id":"0.0-3.0","time_elapsed":36120,"trial_index":3,"trial_type":"generalization","sample_node":"n04254777","trial_type2":"10_ex","condition":"basic-level_condition","nonsense_word":"coloost","train_images":["n02752496/n02752496_8096.JPEG","n04254777/n04254777_11656.JPEG","n04254777/n04254777_14984.JPEG","n04254777/n04254777_353.JPEG","n04254777/n04254777_11554.JPEG","n04254777/n04254777_18534.JPEG","n04254777/n04254777_8808.JPEG","n04254777/n04254777_15785.JPEG","n04254777/n04254777_19248.JPEG","n04254777/n04254777_17364.JPEG"],"test_images":["n03800933/n03800933_4380.JPEG","n03405725/n03405725_162.JPEG","n13134947/n13134947_12594.JPEG","n04197391/n04197391_2422.JPEG","n04451818/n04451818_3267.JPEG","n13134947/n13134947_5659.JPEG","n03622931/n03622931_7655.JPEG","n02752496/n02752496_1865.JPEG","n02512053/n02512053_5407.JPEG","n13104059/n13104059_8244.JPEG","n04451818/n04451818_15565.JPEG","n01503061/n01503061_3325.JPEG","n13104059/n13104059_10550.JPEG","n03405725/n03405725_1713.JPEG","n03622931/n03622931_2508.JPEG","n01503061/n01503061_9979.JPEG","n04451818/n04451818_23048.JPEG","n04197391/n04197391_9647.JPEG","n04197391/n04197391_139.JPEG","n02752496/n02752496_4869.JPEG","n04197391/n04197391_1336.JPEG","n02512053/n02512053_12335.JPEG","n01503061/n01503061_3442.JPEG","n01503061/n01503061_6132.JPEG"],"trial_ID":26,"responses":["n03622931/n03622931_7655.JPEG"],"rt":8502},{"internal_node_id":"0.0-4.0","time_elapsed":46757,"trial_index":4,"trial_type":"generalization","sample_node":"n01536644","trial_type2":"10_ex","condition":"subordinate_condition","nonsense_word":"canney","train_images":["n01536644/n01536644_10039.JPEG","n01536644/n01536644_7899.JPEG","n01536644/n01536644_9266.JPEG","n01536644/n01536644_913.JPEG","n01536644/n01536644_9278.JPEG","n01536644/n01536644_114.JPEG","n01536644/n01536644_949.JPEG","n01536644/n01536644_3131.JPEG","n01536644/n01536644_5068.JPEG","n01536644/n01536644_997.JPEG"],"test_images":["n04451818/n04451818_747.JPEG","n04451818/n04451818_685.JPEG","n13134947/n13134947_1832.JPEG","n13104059/n13104059_5313.JPEG","n01536644/n01536644_1031.JPEG","n02512053/n02512053_1208.JPEG","n04451818/n04451818_14032.JPEG","n03051540/n03051540_52966.JPEG","n04524313/n04524313_2921.JPEG","n03051540/n03051540_24888.JPEG","n01621127/n01621127_19223.JPEG","n04524313/n04524313_333.JPEG","n03051540/n03051540_19899.JPEG","n01536186/n01536186_6482.JPEG","n03800933/n03800933_4470.JPEG","n01613294/n01613294_373.JPEG","n01536644/n01536644_2661.JPEG","n01613294/n01613294_605.JPEG","n13134947/n13134947_5684.JPEG","n03051540/n03051540_20566.JPEG","n01536186/n01536186_525.JPEG","n03051540/n03051540_51100.JPEG","n01621127/n01621127_5120.JPEG","n03800933/n03800933_4806.JPEG"],"trial_ID":26,"responses":["n01536644/n01536644_1031.JPEG","n01536644/n01536644_2661.JPEG","n01536186/n01536186_525.JPEG"],"rt":9414},{"internal_node_id":"0.0-5.0","time_elapsed":58195,"trial_index":5,"trial_type":"generalization","sample_node":"n03405725","trial_type2":"3_ex","condition":"superordinate_condition","nonsense_word":"abroll","train_images":["n04380533/n04380533_4918.JPEG","n03405725/n03405725_1800.JPEG","n03405725/n03405725_34539.JPEG"],"test_images":["n01503061/n01503061_7969.JPEG","n04524313/n04524313_379.JPEG","n04379243/n04379243_15108.JPEG","n04524313/n04524313_5735.JPEG","n02512053/n02512053_335.JPEG","n03051540/n03051540_14235.JPEG","n04380533/n04380533_2845.JPEG","n03051540/n03051540_4256.JPEG","n04379243/n04379243_26551.JPEG","n03051540/n03051540_6467.JPEG","n03367059/n03367059_4201.JPEG","n03800933/n03800933_2010.JPEG","n03051540/n03051540_11557.JPEG","n04379243/n04379243_11806.JPEG","n01503061/n01503061_459.JPEG","n03800933/n03800933_10337.JPEG","n03001627/n03001627_16418.JPEG","n01503061/n01503061_1649.JPEG","n03367059/n03367059_1339.JPEG","n01503061/n01503061_6791.JPEG","n01503061/n01503061_15239.JPEG","n04380533/n04380533_1849.JPEG","n04524313/n04524313_1343.JPEG","n01503061/n01503061_611.JPEG"],"trial_ID":26,"responses":[],"rt":10247},{"internal_node_id":"0.0-6.0","time_elapsed":64975,"trial_index":6,"trial_type":"generalization","sample_node":"n07760755","trial_type2":"3_ex","condition":"subordinate_condition","nonsense_word":"rephan","train_images":["n07760755/n07760755_2600.JPEG","n07760755/n07760755_1064.JPEG","n07760755/n07760755_970.JPEG"],"test_images":["n07759194/n07759194_6933.JPEG","n03051540/n03051540_20092.JPEG","n07744246/n07744246_10149.JPEG","n13104059/n13104059_5641.JPEG","n01503061/n01503061_3083.JPEG","n04451818/n04451818_7205.JPEG","n04451818/n04451818_14760.JPEG","n07760755/n07760755_1596.JPEG","n01503061/n01503061_9211.JPEG","n01503061/n01503061_4709.JPEG","n03405725/n03405725_26560.JPEG","n04451818/n04451818_1690.JPEG","n01503061/n01503061_8538.JPEG","n03051540/n03051540_37187.JPEG","n07744246/n07744246_1032.JPEG","n01503061/n01503061_10777.JPEG","n07739125/n07739125_3207.JPEG","n04524313/n04524313_3332.JPEG","n07759194/n07759194_6777.JPEG","n01503061/n01503061_3741.JPEG","n07760755/n07760755_353.JPEG","n07744246/n07744246_3822.JPEG","n04524313/n04524313_4287.JPEG","n01503061/n01503061_21606.JPEG"],"trial_ID":26,"responses":["n07760755/n07760755_1596.JPEG","n07760755/n07760755_353.JPEG"],"rt":5593},{"internal_node_id":"0.0-7.0","time_elapsed":82227,"trial_index":7,"trial_type":"generalization","sample_node":"n03249569","trial_type2":"3_ex","condition":"basic-level_condition","nonsense_word":"claine","train_images":["n03249569/n03249569_6643.JPEG","n03249569/n03249569_36361.JPEG","n04387400/n04387400_7367.JPEG"],"test_images":["n13134947/n13134947_626.JPEG","n02512053/n02512053_599.JPEG","n01503061/n01503061_8375.JPEG","n04524313/n04524313_5311.JPEG","n04524313/n04524313_2068.JPEG","n03928116/n03928116_9171.JPEG","n03405725/n03405725_21776.JPEG","n03467517/n03467517_4005.JPEG","n04524313/n04524313_4678.JPEG","n04387400/n04387400_3291.JPEG","n04524313/n04524313_1386.JPEG","n13134947/n13134947_4976.JPEG","n02512053/n02512053_337.JPEG","n13134947/n13134947_2766.JPEG","n02803666/n02803666_11477.JPEG","n04451818/n04451818_7635.JPEG","n03467517/n03467517_19194.JPEG","n04524313/n04524313_3993.JPEG","n04387400/n04387400_9835.JPEG","n04451818/n04451818_15021.JPEG","n03405725/n03405725_1030.JPEG","n04524313/n04524313_1426.JPEG","n03928116/n03928116_7242.JPEG","n02803666/n02803666_14180.JPEG"],"trial_ID":26,"responses":["n04387400/n04387400_3291.JPEG","n02803666/n02803666_14180.JPEG"],"rt":16080},{"internal_node_id":"0.0-8.0","time_elapsed":95969,"trial_index":8,"trial_type":"generalization","sample_node":"n02587051","trial_type2":"1_ex","condition":"subordinate_condition","nonsense_word":"pomple","train_images":["n02587051/n02587051_559.JPEG"],"test_images":["n02587051/n02587051_524.JPEG","n04451818/n04451818_10730.JPEG","n04524313/n04524313_6527.JPEG","n03405725/n03405725_24656.JPEG","n03405725/n03405725_5238.JPEG","n03405725/n03405725_3661.JPEG","n02587300/n02587300_3863.JPEG","n03405725/n03405725_34253.JPEG","n03405725/n03405725_17808.JPEG","n03800933/n03800933_3355.JPEG","n02534734/n02534734_11945.JPEG","n03800933/n03800933_20793.JPEG","n03405725/n03405725_4948.JPEG","n02587300/n02587300_6713.JPEG","n02534734/n02534734_3262.JPEG","n03051540/n03051540_21791.JPEG","n03800933/n03800933_25044.JPEG","n02587051/n02587051_1076.JPEG","n13104059/n13104059_11889.JPEG","n13134947/n13134947_4656.JPEG","n03405725/n03405725_30004.JPEG","n02537085/n02537085_8829.JPEG","n02537085/n02537085_11405.JPEG","n13134947/n13134947_7685.JPEG"],"trial_ID":26,"responses":["n02587051/n02587051_524.JPEG","n02587051/n02587051_1076.JPEG","n02537085/n02537085_11405.JPEG"],"rt":12544},{"internal_node_id":"0.0-9.0","time_elapsed":103932,"trial_index":9,"trial_type":"generalization","sample_node":"n03923692","trial_type2":"1_ex","condition":"subordinate_condition","nonsense_word":"aftion","train_images":["n03923692/n03923692_3718.JPEG"],"test_images":["n04524313/n04524313_4614.JPEG","n03923692/n03923692_2512.JPEG","n03361683/n03361683_1712.JPEG","n04140064/n04140064_8890.JPEG","n04524313/n04524313_420.JPEG","n01503061/n01503061_5942.JPEG","n13104059/n13104059_4266.JPEG","n03923692/n03923692_1663.JPEG","n04140064/n04140064_4102.JPEG","n04140064/n04140064_44939.JPEG","n02512053/n02512053_10265.JPEG","n13104059/n13104059_12265.JPEG","n03405725/n03405725_21533.JPEG","n03405725/n03405725_21187.JPEG","n13104059/n13104059_10872.JPEG","n03481172/n03481172_14984.JPEG","n03361683/n03361683_1389.JPEG","n13104059/n13104059_6100.JPEG","n02512053/n02512053_716.JPEG","n01503061/n01503061_15186.JPEG","n13134947/n13134947_7767.JPEG","n03405725/n03405725_3182.JPEG","n13104059/n13104059_8670.JPEG","n03405725/n03405725_2828.JPEG"],"trial_ID":26,"responses":["n03923692/n03923692_2512.JPEG","n03923692/n03923692_1663.JPEG","n03361683/n03361683_1389.JPEG"],"rt":6746}],"__v":0}
{"_id":{"$oid":"591bc8fe33631200049fb455"},"data":[{"internal_node_id":"0.0-2.0","time_elapsed":20519,"trial_index":2,"trial_type":"generalization","sample_node":"n04467665","trial_type2":"3_ex","condition":"subordinate_condition","nonsense_word":"pomple","train_images":["n04467665/n04467665_20185.JPEG","n04467665/n04467665_26379.JPEG","n04467665/n04467665_50806.JPEG"],"test_images":["n02958343/n02958343_11323.JPEG","n02958343/n02958343_8229.JPEG","n03051540/n03051540_7502.JPEG","n01503061/n01503061_10682.JPEG","n01503061/n01503061_5839.JPEG","n03800933/n03800933_11100.JPEG","n02512053/n02512053_5176.JPEG","n04467665/n04467665_7338.JPEG","n13134947/n13134947_11305.JPEG","n02958343/n02958343_13642.JPEG","n04451818/n04451818_9138.JPEG","n01503061/n01503061_10939.JPEG","n02512053/n02512053_4011.JPEG","n03800933/n03800933_9728.JPEG","n04451818/n04451818_3806.JPEG","n04467665/n04467665_5665.JPEG","n03930630/n03930630_2490.JPEG","n03800933/n03800933_669.JPEG","n13134947/n13134947_6674.JPEG","n02691156/n02691156_34778.JPEG","n13134947/n13134947_4246.JPEG","n03930630/n03930630_19055.JPEG","n04451818/n04451818_21400.JPEG","n01503061/n01503061_8507.JPEG"],"trial_ID":29,"responses":["n04467665/n04467665_5665.JPEG"],"rt":15038},{"internal_node_id":"0.0-3.0","time_elapsed":29488,"trial_index":3,"trial_type":"generalization","sample_node":"n03622931","trial_type2":"3_ex","condition":"subordinate_condition","nonsense_word":"rephan","train_images":["n03622931/n03622931_6906.JPEG","n03622931/n03622931_14877.JPEG","n03622931/n03622931_591.JPEG"],"test_images":["n01503061/n01503061_9979.JPEG","n13134947/n13134947_12594.JPEG","n03405725/n03405725_1713.JPEG","n03622931/n03622931_7502.JPEG","n04197391/n04197391_9647.JPEG","n13104059/n13104059_10550.JPEG","n01503061/n01503061_3442.JPEG","n02512053/n02512053_12335.JPEG","n13134947/n13134947_5659.JPEG","n04451818/n04451818_15565.JPEG","n01503061/n01503061_3325.JPEG","n01503061/n01503061_6132.JPEG","n04197391/n04197391_1336.JPEG","n04451818/n04451818_3267.JPEG","n02752496/n02752496_4461.JPEG","n04197391/n04197391_139.JPEG","n03800933/n03800933_4380.JPEG","n04197391/n04197391_2422.JPEG","n03405725/n03405725_162.JPEG","n13104059/n13104059_8244.JPEG","n03622931/n03622931_4147.JPEG","n02752496/n02752496_3719.JPEG","n04451818/n04451818_23048.JPEG","n02512053/n02512053_5407.JPEG"],"trial_ID":29,"responses":["n02752496/n02752496_4461.JPEG","n03622931/n03622931_4147.JPEG","n02752496/n02752496_3719.JPEG"],"rt":7951},{"internal_node_id":"0.0-4.0","time_elapsed":41634,"trial_index":4,"trial_type":"generalization","sample_node":"n01613294","trial_type2":"10_ex","condition":"basic-level_condition","nonsense_word":"aftion","train_images":["n01613294/n01613294_13675.JPEG","n01613294/n01613294_7831.JPEG","n01613294/n01613294_8368.JPEG","n01613294/n01613294_4071.JPEG","n01613294/n01613294_15082.JPEG","n01613294/n01613294_654.JPEG","n01614343/n01614343_2545.JPEG","n01613294/n01613294_3538.JPEG","n01613294/n01613294_8340.JPEG","n01613294/n01613294_2990.JPEG"],"test_images":["n03051540/n03051540_51100.JPEG","n01614925/n01614925_11157.JPEG","n01614925/n01614925_3264.JPEG","n01539573/n01539573_1792.JPEG","n04451818/n04451818_685.JPEG","n01539573/n01539573_6019.JPEG","n01539573/n01539573_548.JPEG","n13104059/n13104059_5313.JPEG","n01614343/n01614343_919.JPEG","n03051540/n03051540_19899.JPEG","n03800933/n03800933_4806.JPEG","n01614343/n01614343_3470.JPEG","n04524313/n04524313_333.JPEG","n13134947/n13134947_1832.JPEG","n01539573/n01539573_4984.JPEG","n04524313/n04524313_2921.JPEG","n04451818/n04451818_747.JPEG","n03051540/n03051540_52966.JPEG","n03051540/n03051540_24888.JPEG","n04451818/n04451818_14032.JPEG","n03051540/n03051540_20566.JPEG","n03800933/n03800933_4470.JPEG","n13134947/n13134947_5684.JPEG","n02512053/n02512053_1208.JPEG"],"trial_ID":29,"responses":["n01614925/n01614925_11157.JPEG","n01614925/n01614925_3264.JPEG","n01539573/n01539573_1792.JPEG","n01539573/n01539573_6019.JPEG","n01614343/n01614343_919.JPEG","n01614343/n01614343_3470.JPEG"],"rt":11131},{"internal_node_id":"0.0-5.0","time_elapsed":57171,"trial_index":5,"trial_type":"generalization","sample_node":"n03620967","trial_type2":"10_ex","condition":"subordinate_condition","nonsense_word":"coloost","train_images":["n03620967/n03620967_2997.JPEG","n03620967/n03620967_5131.JPEG","n03620967/n03620967_344.JPEG","n03620967/n03620967_7031.JPEG","n03620967/n03620967_3059.JPEG","n03620967/n03620967_7421.JPEG","n03620967/n03620967_246.JPEG","n03620967/n03620967_1866.JPEG","n03620967/n03620967_8119.JPEG","n03620967/n03620967_2670.JPEG"],"test_images":["n03800933/n03800933_2010.JPEG","n01503061/n01503061_1649.JPEG","n03001627/n03001627_1773.JPEG","n03051540/n03051540_4256.JPEG","n03001627/n03001627_3343.JPEG","n03201035/n03201035_5571.JPEG","n04524313/n04524313_5735.JPEG","n01503061/n01503061_459.JPEG","n03201035/n03201035_347.JPEG","n03800933/n03800933_10337.JPEG","n03620967/n03620967_1444.JPEG","n01503061/n01503061_7969.JPEG","n01503061/n01503061_15239.JPEG","n03051540/n03051540_14235.JPEG","n03620967/n03620967_583.JPEG","n03001627/n03001627_6880.JPEG","n03636248/n03636248_3806.JPEG","n01503061/n01503061_6791.JPEG","n04524313/n04524313_1343.JPEG","n01503061/n01503061_611.JPEG","n03051540/n03051540_6467.JPEG","n02512053/n02512053_335.JPEG","n03051540/n03051540_11557.JPEG","n04524313/n04524313_379.JPEG"],"trial_ID":29,"responses":["n03201035/n03201035_5571.JPEG"],"rt":14521},{"internal_node_id":"0.0-6.0","time_elapsed":69646,"trial_index":6,"trial_type":"generalization","sample_node":"n07744682","trial_type2":"3_ex","condition":"subordinate_condition","nonsense_word":"abroll","train_images":["n07744682/n07744682_2373.JPEG","n07744682/n07744682_212.JPEG","n07744682/n07744682_5894.JPEG"],"test_images":["n01503061/n01503061_9211.JPEG","n07739125/n07739125_5852.JPEG","n07744559/n07744559_2604.JPEG","n04524313/n04524313_3332.JPEG","n07758680/n07758680_17712.JPEG","n04451818/n04451818_7205.JPEG","n07744682/n07744682_1796.JPEG","n03051540/n03051540_20092.JPEG","n03051540/n03051540_37187.JPEG","n04451818/n04451818_1690.JPEG","n07744682/n07744682_2617.JPEG","n07744559/n07744559_5184.JPEG","n01503061/n01503061_4709.JPEG","n01503061/n01503061_10777.JPEG","n04451818/n04451818_14760.JPEG","n01503061/n01503061_8538.JPEG","n04524313/n04524313_4287.JPEG","n01503061/n01503061_3083.JPEG","n03405725/n03405725_26560.JPEG","n07758680/n07758680_15982.JPEG","n01503061/n01503061_21606.JPEG","n13104059/n13104059_5641.JPEG","n07758680/n07758680_5587.JPEG","n01503061/n01503061_3741.JPEG"],"trial_ID":29,"responses":["n07744559/n07744559_2604.JPEG","n07758680/n07758680_17712.JPEG","n07744682/n07744682_1796.JPEG","n07744559/n07744559_5184.JPEG","n07758680/n07758680_15982.JPEG"],"rt":11459},{"internal_node_id":"0.0-7.0","time_elapsed":91947,"trial_index":7,"trial_type":"generalization","sample_node":"n02803666","trial_type2":"3_ex","condition":"subordinate_condition","nonsense_word":"stuyer","train_images":["n02803666/n02803666_5586.JPEG","n02803666/n02803666_4001.JPEG","n02803666/n02803666_8039.JPEG"],"test_images":["n04524313/n04524313_3993.JPEG","n02803666/n02803666_19619.JPEG","n04524313/n04524313_5311.JPEG","n04387400/n04387400_5175.JPEG","n03467517/n03467517_19194.JPEG","n01503061/n01503061_8375.JPEG","n03405725/n03405725_21776.JPEG","n04451818/n04451818_7635.JPEG","n03405725/n03405725_1030.JPEG","n03928116/n03928116_9171.JPEG","n02803666/n02803666_14563.JPEG","n03467517/n03467517_4005.JPEG","n02512053/n02512053_599.JPEG","n13134947/n13134947_4976.JPEG","n13134947/n13134947_2766.JPEG","n04524313/n04524313_1386.JPEG","n04524313/n04524313_1426.JPEG","n02512053/n02512053_337.JPEG","n03928116/n03928116_7242.JPEG","n13134947/n13134947_626.JPEG","n04451818/n04451818_15021.JPEG","n04524313/n04524313_2068.JPEG","n04387400/n04387400_6847.JPEG","n04524313/n04524313_4678.JPEG"],"trial_ID":29,"responses":["n04387400/n04387400_5175.JPEG","n02803666/n02803666_14563.JPEG"],"rt":21282},{"internal_node_id":"0.0-8.0","time_elapsed":104305,"trial_index":8,"trial_type":"generalization","sample_node":"n02538010","trial_type2":"10_ex","condition":"subordinate_condition","nonsense_word":"claine","train_images":["n02538010/n02538010_6827.JPEG","n02538010/n02538010_3173.JPEG","n02538010/n02538010_7516.JPEG","n02538010/n02538010_8496.JPEG","n02538010/n02538010_11480.JPEG","n02538010/n02538010_9370.JPEG","n02538010/n02538010_1345.JPEG","n02538010/n02538010_6673.JPEG","n02538010/n02538010_4702.JPEG","n02538010/n02538010_6569.JPEG"],"test_images":["n03405725/n03405725_30004.JPEG","n13134947/n13134947_7685.JPEG","n03800933/n03800933_3355.JPEG","n03405725/n03405725_5238.JPEG","n02538010/n02538010_6916.JPEG","n04451818/n04451818_10730.JPEG","n03800933/n03800933_20793.JPEG","n03051540/n03051540_21791.JPEG","n02534734/n02534734_5129.JPEG","n02537525/n02537525_2247.JPEG","n02586543/n02586543_1340.JPEG","n04524313/n04524313_6527.JPEG","n03405725/n03405725_17808.JPEG","n03405725/n03405725_3661.JPEG","n13104059/n13104059_11889.JPEG","n02538010/n02538010_5322.JPEG","n03405725/n03405725_4948.JPEG","n03405725/n03405725_24656.JPEG","n02537525/n02537525_934.JPEG","n03405725/n03405725_34253.JPEG","n02534734/n02534734_8418.JPEG","n02534734/n02534734_114.JPEG","n03800933/n03800933_25044.JPEG","n13134947/n13134947_4656.JPEG"],"trial_ID":29,"responses":["n02538010/n02538010_6916.JPEG","n02586543/n02586543_1340.JPEG","n02538010/n02538010_5322.JPEG","n02534734/n02534734_8418.JPEG","n02534734/n02534734_114.JPEG"],"rt":11338},{"internal_node_id":"0.0-9.0","time_elapsed":111337,"trial_index":9,"trial_type":"generalization","sample_node":"n03474779","trial_type2":"3_ex","condition":"subordinate_condition","nonsense_word":"canney","train_images":["n03474779/n03474779_11104.JPEG","n03474779/n03474779_18387.JPEG","n03474779/n03474779_13438.JPEG"],"test_images":["n13104059/n13104059_12265.JPEG","n13104059/n13104059_8670.JPEG","n13104059/n13104059_6100.JPEG","n02512053/n02512053_10265.JPEG","n03474779/n03474779_1669.JPEG","n02512053/n02512053_716.JPEG","n03405725/n03405725_21187.JPEG","n03405725/n03405725_21533.JPEG","n03136504/n03136504_3518.JPEG","n04154565/n04154565_3145.JPEG","n03481172/n03481172_666.JPEG","n03136504/n03136504_8680.JPEG","n01503061/n01503061_5942.JPEG","n13104059/n13104059_10872.JPEG","n03474779/n03474779_6959.JPEG","n03405725/n03405725_3182.JPEG","n04524313/n04524313_4614.JPEG","n13134947/n13134947_7767.JPEG","n04524313/n04524313_420.JPEG","n04154565/n04154565_7179.JPEG","n03405725/n03405725_2828.JPEG","n13104059/n13104059_4266.JPEG","n04154565/n04154565_3656.JPEG","n01503061/n01503061_15186.JPEG"],"trial_ID":29,"responses":["n02512053/n02512053_10265.JPEG","n02512053/n02512053_716.JPEG"],"rt":6017}],"__v":0}
{"_id":{"$oid":"591bc90733631200049fb456"},"data":[{"internal_node_id":"0.0-2.0","time_elapsed":61810,"trial_index":2,"trial_type":"generalization","sample_node":"n04467665","trial_type2":"5_ex","condition":"subordinate_condition","nonsense_word":"stuyer","train_images":["n04467665/n04467665_20185.JPEG","n04467665/n04467665_20527.JPEG","n04467665/n04467665_345.JPEG","n04467665/n04467665_50806.JPEG","n04467665/n04467665_26379.JPEG"],"test_images":["n13134947/n13134947_11305.JPEG","n04451818/n04451818_3806.JPEG","n02958343/n02958343_13642.JPEG","n04467665/n04467665_5665.JPEG","n01503061/n01503061_5839.JPEG","n02512053/n02512053_4011.JPEG","n01503061/n01503061_8507.JPEG","n03930630/n03930630_19055.JPEG","n04467665/n04467665_7338.JPEG","n01503061/n01503061_10682.JPEG","n02958343/n02958343_11323.JPEG","n03800933/n03800933_11100.JPEG","n03800933/n03800933_669.JPEG","n02512053/n02512053_5176.JPEG","n01503061/n01503061_10939.JPEG","n03051540/n03051540_7502.JPEG","n03930630/n03930630_2490.JPEG","n04451818/n04451818_21400.JPEG","n02958343/n02958343_8229.JPEG","n03800933/n03800933_9728.JPEG","n04451818/n04451818_9138.JPEG","n13134947/n13134947_6674.JPEG","n02691156/n02691156_34778.JPEG","n13134947/n13134947_4246.JPEG"],"trial_ID":6,"responses":["n04467665/n04467665_5665.JPEG"],"rt":55494},{"internal_node_id":"0.0-3.0","time_elapsed":80813,"trial_index":3,"trial_type":"generalization","sample_node":"n02752496","trial_type2":"1_ex","condition":"subordinate_condition","nonsense_word":"coloost","train_images":["n02752496/n02752496_8096.JPEG"],"test_images":["n04197391/n04197391_9647.JPEG","n03800933/n03800933_4380.JPEG","n01503061/n01503061_9979.JPEG","n04197391/n04197391_139.JPEG","n13104059/n13104059_10550.JPEG","n02752496/n02752496_1865.JPEG","n04451818/n04451818_15565.JPEG","n01503061/n01503061_6132.JPEG","n13134947/n13134947_12594.JPEG","n02512053/n02512053_12335.JPEG","n03622931/n03622931_2508.JPEG","n04197391/n04197391_2422.JPEG","n02752496/n02752496_4869.JPEG","n13134947/n13134947_5659.JPEG","n04451818/n04451818_3267.JPEG","n03622931/n03622931_7655.JPEG","n01503061/n01503061_3442.JPEG","n03405725/n03405725_1713.JPEG","n02512053/n02512053_5407.JPEG","n03405725/n03405725_162.JPEG","n13104059/n13104059_8244.JPEG","n04451818/n04451818_23048.JPEG","n04197391/n04197391_1336.JPEG","n01503061/n01503061_3325.JPEG"],"trial_ID":6,"responses":["n02752496/n02752496_1865.JPEG","n03622931/n03622931_2508.JPEG","n02752496/n02752496_4869.JPEG"],"rt":17981},{"internal_node_id":"0.0-4.0","time_elapsed":107983,"trial_index":4,"trial_type":"generalization","sample_node":"n01621127","trial_type2":"5_ex","condition":"basic-level_condition","nonsense_word":"aftion","train_images":["n01621127/n01621127_1659.JPEG","n01622779/n01622779_2975.JPEG","n01621127/n01621127_10856.JPEG","n01621127/n01621127_14993.JPEG","n01621127/n01621127_2661.JPEG"],"test_images":["n03051540/n03051540_24888.JPEG","n01622779/n01622779_2013.JPEG","n04524313/n04524313_2921.JPEG","n01625562/n01625562_1108.JPEG","n13104059/n13104059_5313.JPEG","n04451818/n04451818_685.JPEG","n04524313/n04524313_333.JPEG","n02512053/n02512053_1208.JPEG","n01613294/n01613294_3391.JPEG","n01625562/n01625562_2472.JPEG","n01613294/n01613294_10295.JPEG","n13134947/n13134947_1832.JPEG","n01613294/n01613294_1697.JPEG","n04451818/n04451818_14032.JPEG","n03800933/n03800933_4806.JPEG","n03051540/n03051540_20566.JPEG","n01622779/n01622779_308.JPEG","n04451818/n04451818_747.JPEG","n03051540/n03051540_51100.JPEG","n03051540/n03051540_19899.JPEG","n13134947/n13134947_5684.JPEG","n03051540/n03051540_52966.JPEG","n01613294/n01613294_2168.JPEG","n03800933/n03800933_4470.JPEG"],"trial_ID":6,"responses":["n01622779/n01622779_2013.JPEG","n01625562/n01625562_1108.JPEG","n01625562/n01625562_2472.JPEG","n01622779/n01622779_308.JPEG"],"rt":26146},{"internal_node_id":"0.0-5.0","time_elapsed":117560,"trial_index":5,"trial_type":"generalization","sample_node":"n04331277","trial_type2":"1_ex","condition":"subordinate_condition","nonsense_word":"rephan","train_images":["n04331277/n04331277_8673.JPEG"],"test_images":["n04379243/n04379243_15854.JPEG","n01503061/n01503061_611.JPEG","n02512053/n02512053_335.JPEG","n04524313/n04524313_1343.JPEG","n04524313/n04524313_379.JPEG","n03051540/n03051540_6467.JPEG","n02738535/n02738535_20135.JPEG","n03051540/n03051540_11557.JPEG","n03051540/n03051540_4256.JPEG","n01503061/n01503061_1649.JPEG","n01503061/n01503061_15239.JPEG","n01503061/n01503061_7969.JPEG","n04524313/n04524313_5735.JPEG","n02738535/n02738535_10416.JPEG","n01503061/n01503061_459.JPEG","n04379243/n04379243_21147.JPEG","n03051540/n03051540_14235.JPEG","n04379243/n04379243_13684.JPEG","n01503061/n01503061_6791.JPEG","n04379243/n04379243_13159.JPEG","n03800933/n03800933_2010.JPEG","n04331277/n04331277_173.JPEG","n03800933/n03800933_10337.JPEG","n04331277/n04331277_9090.JPEG"],"trial_ID":6,"responses":[],"rt":8557},{"internal_node_id":"0.0-6.0","time_elapsed":148723,"trial_index":6,"trial_type":"generalization","sample_node":"n13134947","trial_type2":"3_ex","condition":"superordinate_condition","nonsense_word":"claine","train_images":["n13134947/n13134947_3753.JPEG","n13134947/n13134947_5623.JPEG","n07740954/n07740954_6193.JPEG"],"test_images":["n07740954/n07740954_11853.JPEG","n01503061/n01503061_9211.JPEG","n07744246/n07744246_10706.JPEG","n04524313/n04524313_4287.JPEG","n04451818/n04451818_7205.JPEG","n01503061/n01503061_10777.JPEG","n04451818/n04451818_1690.JPEG","n07758680/n07758680_717.JPEG","n07740954/n07740954_17324.JPEG","n07740220/n07740220_7564.JPEG","n07758680/n07758680_12189.JPEG","n03051540/n03051540_37187.JPEG","n01503061/n01503061_8538.JPEG","n03405725/n03405725_26560.JPEG","n04524313/n04524313_3332.JPEG","n07740220/n07740220_12391.JPEG","n13104059/n13104059_5641.JPEG","n01503061/n01503061_3741.JPEG","n04451818/n04451818_14760.JPEG","n01503061/n01503061_21606.JPEG","n07744246/n07744246_2036.JPEG","n01503061/n01503061_3083.JPEG","n03051540/n03051540_20092.JPEG","n01503061/n01503061_4709.JPEG"],"trial_ID":6,"responses":["n07740954/n07740954_11853.JPEG","n07744246/n07744246_10706.JPEG","n07740954/n07740954_17324.JPEG","n07740220/n07740220_7564.JPEG","n07758680/n07758680_12189.JPEG","n07740220/n07740220_12391.JPEG","n07744246/n07744246_2036.JPEG"],"rt":30143},{"internal_node_id":"0.0-7.0","time_elapsed":170806,"trial_index":7,"trial_type":"generalization","sample_node":"n03800933","trial_type2":"5_ex","condition":"superordinate_condition","nonsense_word":"pomple","train_images":["n03800933/n03800933_15019.JPEG","n03800933/n03800933_795.JPEG","n03272010/n03272010_3234.JPEG","n03800933/n03800933_12680.JPEG","n03800933/n03800933_17487.JPEG"],"test_images":["n02676566/n02676566_5084.JPEG","n03928116/n03928116_32249.JPEG","n04524313/n04524313_5311.JPEG","n03272010/n03272010_3459.JPEG","n03272010/n03272010_1416.JPEG","n04524313/n04524313_3993.JPEG","n03249569/n03249569_6183.JPEG","n04524313/n04524313_1426.JPEG","n01503061/n01503061_8375.JPEG","n04451818/n04451818_7635.JPEG","n02512053/n02512053_599.JPEG","n04524313/n04524313_4678.JPEG","n02676566/n02676566_3889.JPEG","n04524313/n04524313_1386.JPEG","n04451818/n04451818_15021.JPEG","n02512053/n02512053_337.JPEG","n03405725/n03405725_21776.JPEG","n13134947/n13134947_626.JPEG","n04524313/n04524313_2068.JPEG","n13134947/n13134947_4976.JPEG","n03928116/n03928116_15171.JPEG","n03405725/n03405725_1030.JPEG","n13134947/n13134947_2766.JPEG","n03928116/n03928116_1197.JPEG"],"trial_ID":6,"responses":["n02676566/n02676566_5084.JPEG","n03928116/n03928116_32249.JPEG","n03272010/n03272010_3459.JPEG","n03272010/n03272010_1416.JPEG","n03249569/n03249569_6183.JPEG","n02676566/n02676566_3889.JPEG","n03928116/n03928116_15171.JPEG","n03928116/n03928116_1197.JPEG"],"rt":21062},{"internal_node_id":"0.0-8.0","time_elapsed":187029,"trial_index":8,"trial_type":"generalization","sample_node":"n02587051","trial_type2":"5_ex","condition":"subordinate_condition","nonsense_word":"abroll","train_images":["n02587051/n02587051_172.JPEG","n02587051/n02587051_655.JPEG","n02587051/n02587051_564.JPEG","n02587051/n02587051_1201.JPEG","n02587051/n02587051_559.JPEG"],"test_images":["n02587051/n02587051_1076.JPEG","n03405725/n03405725_30004.JPEG","n02587300/n02587300_3863.JPEG","n02534734/n02534734_11945.JPEG","n13134947/n13134947_4656.JPEG","n13134947/n13134947_7685.JPEG","n03800933/n03800933_25044.JPEG","n03051540/n03051540_21791.JPEG","n03405725/n03405725_4948.JPEG","n02587300/n02587300_6713.JPEG","n03405725/n03405725_3661.JPEG","n03800933/n03800933_3355.JPEG","n04524313/n04524313_6527.JPEG","n02534734/n02534734_3262.JPEG","n03405725/n03405725_24656.JPEG","n03405725/n03405725_17808.JPEG","n03405725/n03405725_34253.JPEG","n02537085/n02537085_8829.JPEG","n04451818/n04451818_10730.JPEG","n02537085/n02537085_11405.JPEG","n13104059/n13104059_11889.JPEG","n03405725/n03405725_5238.JPEG","n02587051/n02587051_524.JPEG","n03800933/n03800933_20793.JPEG"],"trial_ID":6,"responses":["n02587051/n02587051_1076.JPEG","n02587300/n02587300_6713.JPEG","n02537085/n02537085_8829.JPEG","n02537085/n02537085_11405.JPEG","n02587051/n02587051_524.JPEG"],"rt":15202},{"internal_node_id":"0.0-9.0","time_elapsed":196811,"trial_index":9,"trial_type":"generalization","sample_node":"n03136504","trial_type2":"3_ex","condition":"subordinate_condition","nonsense_word":"canney","train_images":["n03136504/n03136504_4845.JPEG","n03136504/n03136504_2311.JPEG","n03136504/n03136504_2310.JPEG"],"test_images":["n03405725/n03405725_21533.JPEG","n04154565/n04154565_7179.JPEG","n04154565/n04154565_3145.JPEG","n13104059/n13104059_4266.JPEG","n03481172/n03481172_666.JPEG","n03136504/n03136504_4812.JPEG","n13104059/n13104059_6100.JPEG","n01503061/n01503061_5942.JPEG","n04524313/n04524313_4614.JPEG","n03136504/n03136504_9125.JPEG","n03405725/n03405725_3182.JPEG","n13104059/n13104059_10872.JPEG","n13104059/n13104059_8670.JPEG","n13104059/n13104059_12265.JPEG","n04524313/n04524313_420.JPEG","n02512053/n02512053_10265.JPEG","n01503061/n01503061_15186.JPEG","n04154565/n04154565_3656.JPEG","n03474779/n03474779_23932.JPEG","n13134947/n13134947_7767.JPEG","n02512053/n02512053_716.JPEG","n03405725/n03405725_21187.JPEG","n03474779/n03474779_15036.JPEG","n03405725/n03405725_2828.JPEG"],"trial_ID":6,"responses":["n03136504/n03136504_4812.JPEG"],"rt":8763}],"__v":0}
{"_id":{"$oid":"591bc90f33631200049fb457"},"data":[{"internal_node_id":"0.0-2.0","time_elapsed":46242,"trial_index":2,"trial_type":"generalization","sample_node":"n04490091","trial_type2":"3_ex","condition":"basic-level_condition","nonsense_word":"canney","train_images":["n04490091/n04490091_16383.JPEG","n04467665/n04467665_20185.JPEG","n04490091/n04490091_4174.JPEG"],"test_images":["n03051540/n03051540_7502.JPEG","n13134947/n13134947_11305.JPEG","n04451818/n04451818_9138.JPEG","n03930630/n03930630_2490.JPEG","n03800933/n03800933_9728.JPEG","n01503061/n01503061_10939.JPEG","n02512053/n02512053_4011.JPEG","n04451818/n04451818_3806.JPEG","n04451818/n04451818_21400.JPEG","n03800933/n03800933_669.JPEG","n01503061/n01503061_5839.JPEG","n02958343/n02958343_11323.JPEG","n02691156/n02691156_34778.JPEG","n02958343/n02958343_13642.JPEG","n01503061/n01503061_10682.JPEG","n02512053/n02512053_5176.JPEG","n02958343/n02958343_8229.JPEG","n01503061/n01503061_8507.JPEG","n04467665/n04467665_5665.JPEG","n03930630/n03930630_19055.JPEG","n03800933/n03800933_11100.JPEG","n13134947/n13134947_6674.JPEG","n04467665/n04467665_7338.JPEG","n13134947/n13134947_4246.JPEG"],"trial_ID":3,"responses":["n03930630/n03930630_2490.JPEG","n03930630/n03930630_19055.JPEG"],"rt":40636},{"internal_node_id":"0.0-3.0","time_elapsed":60849,"trial_index":3,"trial_type":"generalization","sample_node":"n04197391","trial_type2":"5_ex","condition":"basic-level_condition","nonsense_word":"rephan","train_images":["n03978966/n03978966_6286.JPEG","n04197391/n04197391_13406.JPEG","n04197391/n04197391_1634.JPEG","n04197391/n04197391_13042.JPEG","n04197391/n04197391_9133.JPEG"],"test_images":["n04254777/n04254777_5816.JPEG","n03800933/n03800933_4380.JPEG","n02512053/n02512053_5407.JPEG","n03405725/n03405725_162.JPEG","n13104059/n13104059_8244.JPEG","n13104059/n13104059_10550.JPEG","n04451818/n04451818_23048.JPEG","n03978966/n03978966_9552.JPEG","n01503061/n01503061_3442.JPEG","n13134947/n13134947_12594.JPEG","n03978966/n03978966_8793.JPEG","n03238879/n03238879_4289.JPEG","n04254777/n04254777_3245.JPEG","n04489008/n04489008_24215.JPEG","n03238879/n03238879_1420.JPEG","n01503061/n01503061_6132.JPEG","n13134947/n13134947_5659.JPEG","n04451818/n04451818_3267.JPEG","n01503061/n01503061_9979.JPEG","n02512053/n02512053_12335.JPEG","n01503061/n01503061_3325.JPEG","n04451818/n04451818_15565.JPEG","n04254777/n04254777_20819.JPEG","n03405725/n03405725_1713.JPEG"],"trial_ID":3,"responses":["n03978966/n03978966_9552.JPEG","n03238879/n03238879_4289.JPEG","n03238879/n03238879_1420.JPEG"],"rt":13577},{"internal_node_id":"0.0-4.0","time_elapsed":82144,"trial_index":4,"trial_type":"generalization","sample_node":"n01536644","trial_type2":"3_ex","condition":"subordinate_condition","nonsense_word":"stuyer","train_images":["n01536644/n01536644_9266.JPEG","n01536644/n01536644_949.JPEG","n01536644/n01536644_5068.JPEG"],"test_images":["n03051540/n03051540_20566.JPEG","n01536644/n01536644_1031.JPEG","n04451818/n04451818_685.JPEG","n13134947/n13134947_1832.JPEG","n01613294/n01613294_373.JPEG","n04451818/n04451818_747.JPEG","n13134947/n13134947_5684.JPEG","n03800933/n03800933_4470.JPEG","n01621127/n01621127_19223.JPEG","n03051540/n03051540_24888.JPEG","n03051540/n03051540_51100.JPEG","n03051540/n03051540_52966.JPEG","n03051540/n03051540_19899.JPEG","n04451818/n04451818_14032.JPEG","n03800933/n03800933_4806.JPEG","n01536186/n01536186_525.JPEG","n01536186/n01536186_6482.JPEG","n04524313/n04524313_2921.JPEG","n13104059/n13104059_5313.JPEG","n01621127/n01621127_5120.JPEG","n02512053/n02512053_1208.JPEG","n04524313/n04524313_333.JPEG","n01613294/n01613294_605.JPEG","n01536644/n01536644_2661.JPEG"],"trial_ID":3,"responses":["n01536644/n01536644_1031.JPEG","n01536186/n01536186_525.JPEG","n01536186/n01536186_6482.JPEG"],"rt":20266},{"internal_node_id":"0.0-5.0","time_elapsed":100999,"trial_index":5,"trial_type":"generalization","sample_node":"n03620967","trial_type2":"3_ex","condition":"subordinate_condition","nonsense_word":"aftion","train_images":["n03620967/n03620967_246.JPEG","n03620967/n03620967_5131.JPEG","n03620967/n03620967_1866.JPEG"],"test_images":["n03001627/n03001627_3343.JPEG","n03051540/n03051540_11557.JPEG","n01503061/n01503061_15239.JPEG","n03051540/n03051540_6467.JPEG","n01503061/n01503061_459.JPEG","n03620967/n03620967_583.JPEG","n03001627/n03001627_1773.JPEG","n04524313/n04524313_5735.JPEG","n03201035/n03201035_347.JPEG","n01503061/n01503061_611.JPEG","n03800933/n03800933_2010.JPEG","n03051540/n03051540_14235.JPEG","n03800933/n03800933_10337.JPEG","n01503061/n01503061_7969.JPEG","n01503061/n01503061_1649.JPEG","n04524313/n04524313_1343.JPEG","n03051540/n03051540_4256.JPEG","n03001627/n03001627_6880.JPEG","n02512053/n02512053_335.JPEG","n03636248/n03636248_3806.JPEG","n03620967/n03620967_1444.JPEG","n01503061/n01503061_6791.JPEG","n04524313/n04524313_379.JPEG","n03201035/n03201035_5571.JPEG"],"trial_ID":3,"responses":["n03620967/n03620967_583.JPEG","n03201035/n03201035_347.JPEG","n03620967/n03620967_1444.JPEG","n03201035/n03201035_5571.JPEG"],"rt":17827},{"internal_node_id":"0.0-6.0","time_elapsed":125048,"trial_index":6,"trial_type":"generalization","sample_node":"n07759194","trial_type2":"3_ex","condition":"subordinate_condition","nonsense_word":"claine","train_images":["n07759194/n07759194_6697.JPEG","n07759194/n07759194_6579.JPEG","n07759194/n07759194_2576.JPEG"],"test_images":["n07744246/n07744246_1032.JPEG","n04524313/n04524313_3332.JPEG","n04451818/n04451818_7205.JPEG","n04451818/n04451818_1690.JPEG","n01503061/n01503061_3741.JPEG","n03051540/n03051540_20092.JPEG","n13104059/n13104059_5641.JPEG","n01503061/n01503061_9211.JPEG","n01503061/n01503061_4709.JPEG","n01503061/n01503061_10777.JPEG","n01503061/n01503061_3083.JPEG","n07744246/n07744246_3822.JPEG","n07739125/n07739125_3207.JPEG","n01503061/n01503061_8538.JPEG","n07760755/n07760755_1308.JPEG","n03051540/n03051540_37187.JPEG","n03405725/n03405725_26560.JPEG","n07759194/n07759194_7074.JPEG","n07760755/n07760755_13.JPEG","n01503061/n01503061_21606.JPEG","n07744246/n07744246_10149.JPEG","n07759194/n07759194_5651.JPEG","n04524313/n04524313_4287.JPEG","n04451818/n04451818_14760.JPEG"],"trial_ID":3,"responses":["n07744246/n07744246_1032.JPEG","n07744246/n07744246_3822.JPEG","n07759194/n07759194_7074.JPEG","n07760755/n07760755_13.JPEG","n07744246/n07744246_10149.JPEG","n07759194/n07759194_5651.JPEG"],"rt":23025},{"internal_node_id":"0.0-7.0","time_elapsed":166976,"trial_index":7,"trial_type":"generalization","sample_node":"n03272010","trial_type2":"5_ex","condition":"subordinate_condition","nonsense_word":"abroll","train_images":["n03272010/n03272010_3234.JPEG","n03272010/n03272010_3260.JPEG","n03272010/n03272010_3456.JPEG","n03272010/n03272010_1808.JPEG","n03272010/n03272010_1987.JPEG"],"test_images":["n03928116/n03928116_32249.JPEG","n04524313/n04524313_3993.JPEG","n13134947/n13134947_4976.JPEG","n04524313/n04524313_5311.JPEG","n02676566/n02676566_5084.JPEG","n03928116/n03928116_15171.JPEG","n13134947/n13134947_626.JPEG","n02676566/n02676566_3889.JPEG","n04524313/n04524313_1386.JPEG","n03405725/n03405725_21776.JPEG","n03928116/n03928116_1197.JPEG","n02512053/n02512053_337.JPEG","n04451818/n04451818_15021.JPEG","n03405725/n03405725_1030.JPEG","n04524313/n04524313_4678.JPEG","n03272010/n03272010_3459.JPEG","n02512053/n02512053_599.JPEG","n03272010/n03272010_1416.JPEG","n03249569/n03249569_6183.JPEG","n01503061/n01503061_8375.JPEG","n04451818/n04451818_7635.JPEG","n04524313/n04524313_2068.JPEG","n04524313/n04524313_1426.JPEG","n13134947/n13134947_2766.JPEG"],"trial_ID":3,"responses":["n02676566/n02676566_5084.JPEG","n03272010/n03272010_3459.JPEG","n03272010/n03272010_1416.JPEG"],"rt":40903},{"internal_node_id":"0.0-8.0","time_elapsed":190712,"trial_index":8,"trial_type":"generalization","sample_node":"n02537525","trial_type2":"1_ex","condition":"subordinate_condition","nonsense_word":"coloost","train_images":["n02537525/n02537525_428.JPEG"],"test_images":["n04524313/n04524313_6527.JPEG","n03405725/n03405725_34253.JPEG","n02534734/n02534734_114.JPEG","n02537525/n02537525_629.JPEG","n03800933/n03800933_25044.JPEG","n13104059/n13104059_11889.JPEG","n13134947/n13134947_4656.JPEG","n02534734/n02534734_5129.JPEG","n03405725/n03405725_3661.JPEG","n02537525/n02537525_1155.JPEG","n03405725/n03405725_30004.JPEG","n03405725/n03405725_5238.JPEG","n03800933/n03800933_3355.JPEG","n03051540/n03051540_21791.JPEG","n03405725/n03405725_4948.JPEG","n03800933/n03800933_20793.JPEG","n13134947/n13134947_7685.JPEG","n03405725/n03405725_17808.JPEG","n03405725/n03405725_24656.JPEG","n02538010/n02538010_2253.JPEG","n02538010/n02538010_7663.JPEG","n02534734/n02534734_8418.JPEG","n04451818/n04451818_10730.JPEG","n02586543/n02586543_1340.JPEG"],"trial_ID":3,"responses":["n02534734/n02534734_114.JPEG","n02537525/n02537525_629.JPEG","n02534734/n02534734_5129.JPEG","n02537525/n02537525_1155.JPEG","n02538010/n02538010_2253.JPEG","n02538010/n02538010_7663.JPEG","n02586543/n02586543_1340.JPEG"],"rt":22720},{"internal_node_id":"0.0-9.0","time_elapsed":205143,"trial_index":9,"trial_type":"generalization","sample_node":"n03923692","trial_type2":"3_ex","condition":"subordinate_condition","nonsense_word":"pomple","train_images":["n03923692/n03923692_746.JPEG","n03923692/n03923692_3718.JPEG","n03923692/n03923692_107.JPEG"],"test_images":["n13134947/n13134947_7767.JPEG","n03405725/n03405725_21533.JPEG","n03361683/n03361683_1712.JPEG","n03923692/n03923692_1663.JPEG","n01503061/n01503061_5942.JPEG","n03481172/n03481172_14984.JPEG","n13104059/n13104059_6100.JPEG","n13104059/n13104059_10872.JPEG","n01503061/n01503061_15186.JPEG","n03405725/n03405725_21187.JPEG","n02512053/n02512053_10265.JPEG","n03405725/n03405725_3182.JPEG","n04524313/n04524313_420.JPEG","n04140064/n04140064_4102.JPEG","n04524313/n04524313_4614.JPEG","n13104059/n13104059_4266.JPEG","n02512053/n02512053_716.JPEG","n04140064/n04140064_8890.JPEG","n03405725/n03405725_2828.JPEG","n13104059/n13104059_12265.JPEG","n03923692/n03923692_2512.JPEG","n13104059/n13104059_8670.JPEG","n03361683/n03361683_1389.JPEG","n04140064/n04140064_44939.JPEG"],"trial_ID":3,"responses":["n03361683/n03361683_1712.JPEG","n03923692/n03923692_1663.JPEG","n03923692/n03923692_2512.JPEG","n03361683/n03361683_1389.JPEG"],"rt":13417}],"__v":0}
